PARTICIPANT	SESSION_TIMESTAMP	TRIAL_N	CURRENT_TRIAL	TRIAL_TYPE	TRIAL_START_TIME	FIXATION_ONSET_TIME	STIM_ONSET_TIME	MASK_ONSET_TIME	RESPONSE_GIVEN_TIME	RT_REL_STIM_ONSET	RT_REL_MASK_ONSET	ACCURACY	TIMEOUT
S01_condB	2021-01-20 15:41:55	1	G	NON_BLINK	1611157322.6654227	1611157322.675423	1611157323.1344223	1611157323.3454204	1611157323.7594216	0.6249992847442627	0.4140012264251709	1	0
S01_condB	2021-01-20 15:41:55	2	G	NON_BLINK	1611157323.7594216	1611157323.766421	1611157324.2754729	1611157324.4844222	1611157324.727419	0.4519460201263428	0.2429966926574707	1	0
S01_condB	2021-01-20 15:41:55	3	G	NON_BLINK	1611157324.727419	1611157324.734455	1611157325.144419	1611157325.35142	1611157325.5664186	0.4219996929168701	0.21499872207641602	1	0
S01_condB	2021-01-20 15:41:55	4	NG	NON_BLINK	1611157325.5664186	1611157325.5734203	1611157326.0304186	1611157326.2385485	1611157327.2884228	1.2580041885375977	1.0498743057250977	1	1
S01_condB	2021-01-20 15:41:55	5	G	BLINK	1611157327.2884228	1611157329.3034203	1611157329.7114549	1611157329.9194217	1611157330.1704216	0.4589667320251465	0.25099992752075195	1	0
S01_condB	2021-01-20 15:41:55	6	G	NON_BLINK	1611157330.1704216	1611157330.178423	1611157330.7384198	1611157330.9474206	1611157331.1384192	0.39999938011169434	0.19099855422973633	1	0
S01_condB	2021-01-20 15:41:55	7	G	NON_BLINK	1611157331.1384192	1611157331.1454353	1611157331.6044202	1611157331.8154209	1611157332.0524235	0.44800329208374023	0.23700261116027832	1	0
S01_condB	2021-01-20 15:41:55	8	NG	NON_BLINK	1611157332.0524235	1611157332.0604198	1611157332.4735208	1611157332.6824331	1611157333.7324321	1.258911371231079	1.0499989986419678	1	1
S01_condB	2021-01-20 15:41:55	9	G	NON_BLINK	1611157333.7324321	1611157333.739432	1611157334.1974666	1611157334.405432	1611157334.6614316	0.46396493911743164	0.2559995651245117	1	0
S01_condB	2021-01-20 15:41:55	10	G	BLINK	1611157334.6614316	1611157336.6774306	1611157337.2864637	1611157337.4954283	1611157337.8404276	0.5539638996124268	0.3449993133544922	1	0
S01_condB	2021-01-20 15:41:55	11	G	NON_BLINK	1611157337.8414602	1611157337.848428	1611157338.4104288	1611157338.6214283	1611157338.8094273	0.398998498916626	0.18799901008605957	1	0
S01_condB	2021-01-20 15:41:55	12	G	NON_BLINK	1611157338.8094273	1611157338.816471	1611157339.2744615	1611157339.483457	1611157339.6734266	0.39896512031555176	0.18996953964233398	1	0
S01_condB	2021-01-20 15:41:55	13	NG	NON_BLINK	1611157339.6734266	1611157339.685427	1611157340.293427	1611157340.5024257	1611157341.5524247	1.2589976787567139	1.0499989986419678	1	1
S01_condB	2021-01-20 15:41:55	14	G	NON_BLINK	1611157341.5524247	1611157341.5604253	1611157342.019426	1611157342.2274258	1611157342.456425	0.4369988441467285	0.22899913787841797	1	0
S01_condB	2021-01-20 15:41:55	15	NG	BLINK	1611157342.456425	1611157344.478135	1611157344.9874237	1611157345.195424	1611157346.2454226	1.2579989433288574	1.0499985218048096	1	1
S01_condB	2021-01-20 15:41:55	16	G	NON_BLINK	1611157346.2454226	1611157346.2534225	1611157346.663422	1611157346.8714206	1611157347.141423	0.4780008792877197	0.2700023651123047	1	0
S01_condB	2021-01-20 15:41:55	17	G	NON_BLINK	1611157347.141423	1611157347.1494205	1611157347.7574205	1611157347.9664245	1611157348.160421	0.4030003547668457	0.19399642944335938	1	0
S01_condB	2021-01-20 15:41:55	18	G	NON_BLINK	1611157348.160421	1611157348.1684198	1611157348.6284227	1611157348.8374193	1611157349.0184193	0.3899965286254883	0.1809999942779541	1	0
S01_condB	2021-01-20 15:41:55	19	G	NON_BLINK	1611157349.0184193	1611157349.02642	1611157349.4354196	1611157349.64442	1611157349.8354175	0.3999979496002197	0.19099760055541992	1	0
S01_condB	2021-01-20 15:41:55	20	NG	BLINK	1611157349.8354175	1611157351.852438	1611157352.4614177	1611157352.6704175	1611157353.720415	1.2589974403381348	1.0499975681304932	1	1
S01_condB	2021-01-20 15:41:55	21	G	NON_BLINK	1611157353.720415	1611157353.7294154	1611157354.289416	1611157354.5024161	1611157354.7174351	0.42801904678344727	0.21501898765563965	1	0
S01_condB	2021-01-20 15:41:55	22	NG	NON_BLINK	1611157354.718437	1611157354.7254448	1611157355.285414	1611157355.5064144	1611157356.557414	1.2720000743865967	1.050999641418457	1	1
S01_condB	2021-01-20 15:41:55	23	NG	NON_BLINK	1611157356.557414	1611157356.568415	1611157357.078418	1611157357.2874136	1611157358.3374114	1.25899338722229	1.0499978065490723	1	1
S01_condB	2021-01-20 15:41:55	24	G	NON_BLINK	1611157358.3374114	1611157358.3454115	1611157358.953411	1611157359.1614127	1611157359.4774106	0.5239994525909424	0.315997838973999	1	0
S01_condB	2021-01-20 15:41:55	25	G	BLINK	1611157359.4774106	1611157361.4944093	1611157361.9034104	1611157362.1154096	1611157362.3624077	0.4589972496032715	0.24699807167053223	1	0
S01_condB	2021-01-20 15:41:55	26	G	NON_BLINK	1611157362.3624077	1611157362.3704088	1611157362.779409	1611157362.9974103	1611157363.2004077	0.42099881172180176	0.20299744606018066	1	0
S01_condB	2021-01-20 15:41:55	27	NG	NON_BLINK	1611157363.2004077	1611157363.2094085	1611157363.6174085	1611157363.830407	1611157364.880406	1.2629973888397217	1.0499989986419678	1	1
S01_condB	2021-01-20 15:41:55	28	NG	NON_BLINK	1611157364.880406	1611157364.889408	1611157365.348406	1611157365.558406	1611157366.6084058	1.2599997520446777	1.049999713897705	1	1
S01_condB	2021-01-20 15:41:55	29	G	NON_BLINK	1611157366.6084058	1611157366.6184075	1611157367.1784256	1611157367.3864043	1611157367.7014058	0.5229802131652832	0.3150014877319336	1	0
S01_condB	2021-01-20 15:41:55	30	G	BLINK	1611157367.7014058	1611157369.7174034	1611157370.176424	1611157370.3864057	1611157370.6604018	0.4839777946472168	0.27399611473083496	1	0
S01_condB	2021-01-20 15:41:55	31	G	NON_BLINK	1611157370.6604018	1611157370.6684034	1611157371.0784044	1611157371.2874012	1611157371.5134013	0.4349968433380127	0.22600007057189941	1	0
S01_condB	2021-01-20 15:41:55	32	G	NON_BLINK	1611157371.5134013	1611157371.5214012	1611157372.1354008	1611157372.3444011	1611157372.5674021	0.43200135231018066	0.22300100326538086	1	0
S01_condB	2021-01-20 15:41:55	33	NG	NON_BLINK	1611157372.5674021	1611157372.5764015	1611157372.984401	1611157373.1994007	1611157374.2493997	1.2649986743927002	1.0499989986419678	1	1
S01_condB	2021-01-20 15:41:55	34	G	NON_BLINK	1611157374.2493997	1611157374.2594001	1611157374.8683996	1611157375.0773993	1611157375.446398	0.5779983997344971	0.36899876594543457	1	0
S01_condB	2021-01-20 15:41:55	35	NG	BLINK	1611157375.446398	1611157377.4673965	1611157377.9913962	1611157378.2263978	1611157379.2853956	1.293999433517456	1.0589978694915771	1	1
S01_condB	2021-01-20 15:41:55	36	G	NON_BLINK	1611157379.2853956	1611157379.2983954	1611157379.860395	1611157380.0843961	1611157380.2633944	0.4029994010925293	0.17899823188781738	1	0
S01_condB	2021-01-20 15:41:55	37	G	NON_BLINK	1611157380.2633944	1611157380.2733943	1611157380.8834147	1611157381.0943928	1611157381.2613933	0.3779785633087158	0.16700053215026855	1	0
S01_condB	2021-01-20 15:41:55	38	G	NON_BLINK	1611157381.2613933	1611157381.269397	1611157381.7783935	1611157381.9873939	1611157382.184393	0.40599942207336426	0.19699907302856445	1	0
S01_condB	2021-01-20 15:41:55	39	G	NON_BLINK	1611157382.184393	1611157382.1913939	1611157382.8003926	1611157383.0103931	1611157383.1433933	0.3430006504058838	0.13300013542175293	1	0
S01_condB	2021-01-20 15:41:55	40	G	BLINK	1611157383.1433933	1611157385.1614325	1611157385.6713912	1611157385.8803914	1611157386.2323892	0.5609979629516602	0.35199785232543945	1	0
S01_condB	2021-01-20 15:41:55	41	G	NON_BLINK	1611157386.2323892	1611157386.240389	1611157386.80439	1611157387.0163903	1611157387.2513883	0.44699835777282715	0.23499798774719238	1	0
S01_condB	2021-01-20 15:41:55	42	NG	NON_BLINK	1611157387.2513883	1611157387.2583895	1611157387.670389	1611157387.8803895	1611157388.9313884	1.2609994411468506	1.0509989261627197	1	1
S01_condB	2021-01-20 15:41:55	43	G	NON_BLINK	1611157388.9313884	1611157388.9383888	1611157389.5473883	1611157389.7563884	1611157389.9653862	0.4179978370666504	0.2089977264404297	1	0
S01_condB	2021-01-20 15:41:55	44	G	NON_BLINK	1611157389.9653862	1611157389.9733872	1611157390.5823867	1611157390.7903864	1611157390.969389	0.38700222969055176	0.1790025234222412	1	0
S01_condB	2021-01-20 15:41:55	45	NG	BLINK	1611157390.969389	1611157392.9923868	1611157393.4513843	1611157393.6603854	1611157394.7103827	1.2589983940124512	1.049997329711914	1	1
S01_condB	2021-01-20 15:41:55	46	G	NON_BLINK	1611157394.7103827	1611157394.718385	1611157395.278383	1611157395.4873824	1611157395.5843816	0.3059985637664795	0.0969991683959961	1	0
S01_condB	2021-01-20 15:41:55	47	NG	NON_BLINK	1611157395.5843816	1611157395.5913846	1611157396.0003815	1611157396.2153826	1611157397.2653823	1.265000820159912	1.049999713897705	1	1
S01_condB	2021-01-20 15:41:55	48	G	NON_BLINK	1611157397.266384	1611157397.2773821	1611157397.7374117	1611157397.9463797	1611157398.1023808	0.36496901512145996	0.15600109100341797	1	0
S01_condB	2021-01-20 15:41:55	49	G	NON_BLINK	1611157398.1033812	1611157398.1103802	1611157398.5203793	1611157398.7293801	1611157399.0113797	0.4910004138946533	0.2819995880126953	1	0
S01_condB	2021-01-20 15:41:55	50	G	BLINK	1611157399.0113797	1611157401.0283983	1611157401.4373775	1611157401.6473782	1611157401.9663773	0.5289998054504395	0.3189990520477295	1	0
S01_condB	2021-01-20 15:41:55	51	G	NON_BLINK	1611157401.9663773	1611157401.9733784	1611157402.586378	1611157402.7984114	1611157403.0043757	0.4179975986480713	0.2059643268585205	1	0
S01_condB	2021-01-20 15:41:55	52	G	NON_BLINK	1611157403.0043757	1611157403.0123768	1611157403.6223783	1611157403.8323758	1611157404.0833762	0.4609978199005127	0.25100040435791016	1	0
S01_condB	2021-01-20 15:41:55	53	G	NON_BLINK	1611157404.0833762	1611157404.0903761	1611157404.5013752	1611157404.7103748	1611157404.9313745	0.42999935150146484	0.22099971771240234	1	0
S01_condB	2021-01-20 15:41:55	54	G	NON_BLINK	1611157404.9313745	1611157404.9393747	1611157405.4993737	1611157405.7083735	1611157405.9053733	0.40599966049194336	0.19699978828430176	1	0
S01_condB	2021-01-20 15:41:55	55	G	BLINK	1611157405.9053733	1611157407.933375	1611157408.3433726	1611157408.552685	1611157408.8194187	0.476046085357666	0.26673364639282227	1	0
S01_condB	2021-01-20 15:41:55	56	G	NON_BLINK	1611157408.8194187	1611157408.8274171	1611157409.3884237	1611157409.6004174	1611157409.7674153	0.37899160385131836	0.16699790954589844	1	0
S01_condB	2021-01-20 15:41:55	57	G	NON_BLINK	1611157409.7674153	1611157409.7754176	1611157410.1844172	1611157410.3934166	1611157410.755415	0.5709977149963379	0.3619983196258545	1	0
S01_condB	2021-01-20 15:41:55	58	G	NON_BLINK	1611157410.755415	1611157410.763417	1611157411.1774144	1611157411.386415	1611157411.6894145	0.5120000839233398	0.30299949645996094	1	0
S01_condB	2021-01-20 15:41:55	59	G	NON_BLINK	1611157411.6894145	1611157411.6964152	1611157412.2584157	1611157412.4674153	1611157412.6424139	0.38399815559387207	0.17499852180480957	1	0
S01_condB	2021-01-20 15:41:55	60	G	BLINK	1611157412.6424139	1611157414.6574335	1611157415.2664115	1611157415.4774117	1611157415.652411	0.3859994411468506	0.17499923706054688	1	0
S01_condB	2021-01-20 15:41:55	61	G	NON_BLINK	1611157415.652411	1611157415.6604123	1611157416.2694116	1611157416.480412	1611157416.6104105	0.34099888801574707	0.12999844551086426	1	0
S01_condB	2021-01-20 15:41:55	62	G	NON_BLINK	1611157416.6104105	1611157416.6184115	1611157417.028411	1611157417.2374134	1611157417.5084107	0.4799997806549072	0.2709972858428955	1	0
S01_condB	2021-01-20 15:41:55	63	G	NON_BLINK	1611157417.5084107	1611157417.518411	1611157417.9794097	1611157418.188411	1611157418.3914092	0.4119994640350342	0.20299816131591797	1	0
S01_condB	2021-01-20 15:41:55	64	G	NON_BLINK	1611157418.3914092	1611157418.399409	1611157418.8604102	1611157419.0694308	1611157419.224408	0.3639976978302002	0.15497708320617676	1	0
S01_condB	2021-01-20 15:41:55	65	G	BLINK	1611157419.224408	1611157421.245408	1611157421.8094084	1611157422.019408	1611157422.2454069	0.43599843978881836	0.2259988784790039	1	0
S01_condB	2021-01-20 15:41:55	66	NG	NON_BLINK	1611157422.2454069	1611157422.2534065	1611157422.8624086	1611157423.071406	1611157424.1214046	1.2589960098266602	1.0499987602233887	1	1
S01_condB	2021-01-20 15:41:55	67	NG	NON_BLINK	1611157424.1214046	1611157424.1304047	1611157424.6434286	1611157424.8524046	1611157425.902403	1.258974552154541	1.0499985218048096	1	1
S01_condB	2021-01-20 15:41:55	68	G	NON_BLINK	1611157425.903403	1611157425.9114044	1611157426.319403	1611157426.528404	1611157426.7904024	0.47099947929382324	0.26199841499328613	1	0
S01_condB	2021-01-20 15:41:55	69	NG	NON_BLINK	1611157426.7904024	1611157426.798403	1611157427.3574028	1611157427.5664027	1611157428.616401	1.258998155593872	1.0499982833862305	1	1
S01_condB	2021-01-20 15:41:55	70	G	BLINK	1611157428.616401	1611157430.6344008	1611157431.0446327	1611157431.2523985	1611157431.4563985	0.41176581382751465	0.20399999618530273	1	0
S01_condB	2021-01-20 15:41:55	71	G	NON_BLINK	1611157431.4563985	1611157431.4643998	1611157432.0724003	1611157432.2803988	1611157432.6203978	0.5479974746704102	0.3399989604949951	1	0
S01_condB	2021-01-20 15:41:55	72	NG	NON_BLINK	1611157432.6203978	1611157432.628399	1611157433.0374203	1611157433.2463984	1611157434.296397	1.258976697921753	1.0499985218048096	1	1
S01_condB	2021-01-20 15:41:55	73	G	NON_BLINK	1611157434.296397	1611157434.3043983	1611157434.7143972	1611157434.9233963	1611157435.179395	0.4649977684020996	0.2559986114501953	1	0
S01_condB	2021-01-20 15:41:55	74	G	NON_BLINK	1611157435.179395	1611157435.1873975	1611157435.748396	1611157435.9563959	1611157436.1723948	0.4239988327026367	0.21599888801574707	1	0
S01_condB	2021-01-20 15:41:55	75	NG	BLINK	1611157436.1733952	1611157438.1893935	1611157438.6993928	1611157438.9104245	1611157439.962393	1.263000249862671	1.0519685745239258	1	1
S01_condB	2021-01-20 15:41:55	76	G	NON_BLINK	1611157439.9633934	1611157439.989393	1611157440.4483936	1611157440.6573925	1611157440.9293923	0.4809987545013428	0.2719998359680176	1	0
S01_condB	2021-01-20 15:41:55	77	G	NON_BLINK	1611157440.9293923	1611157440.9363928	1611157441.4453912	1611157441.656393	1611157441.9023902	0.4569990634918213	0.24599719047546387	1	0
S01_condB	2021-01-20 15:41:55	78	G	NON_BLINK	1611157441.9023902	1611157441.9093904	1611157442.5183897	1611157442.7283902	1611157442.9213896	0.4029998779296875	0.19299936294555664	1	0
S01_condB	2021-01-20 15:41:55	79	G	NON_BLINK	1611157442.9213896	1611157442.9293907	1611157443.3373885	1611157443.55339	1611157443.7483878	0.4109992980957031	0.19499778747558594	1	0
S01_condB	2021-01-20 15:41:55	80	G	BLINK	1611157443.7483878	1611157445.765387	1611157446.2743866	1611157446.4833877	1611157446.673386	0.3989994525909424	0.18999838829040527	1	0
S01_condB	2021-01-20 15:41:55	81	G	NON_BLINK	1611157446.673386	1611157446.6833866	1611157447.2924078	1611157447.5043871	1611157447.6363854	0.343977689743042	0.13199830055236816	1	0
S01_condB	2021-01-20 15:41:55	82	G	NON_BLINK	1611157447.6373858	1611157447.6453867	1611157448.2073855	1611157448.4153874	1611157448.585387	0.37800145149230957	0.1699995994567871	1	0
S01_condB	2021-01-20 15:41:55	83	G	NON_BLINK	1611157448.585387	1611157448.5923862	1611157449.1033878	1611157449.3123856	1611157449.5543861	0.45099830627441406	0.24200057983398438	1	0
S01_condB	2021-01-20 15:41:55	84	G	NON_BLINK	1611157449.5543861	1611157449.5653846	1611157450.025385	1611157450.2463837	1611157450.416405	0.3910200595855713	0.17002129554748535	1	0
S01_condB	2021-01-20 15:41:55	85	G	BLINK	1611157450.416405	1611157452.432382	1611157452.9413815	1611157453.1513822	1611157453.3463821	0.4050006866455078	0.19499993324279785	1	0
S01_condB	2021-01-20 15:41:55	86	G	NON_BLINK	1611157453.3463821	1611157453.3533812	1611157453.8654106	1611157454.0734022	1611157454.2283807	0.36297011375427246	0.15497851371765137	1	0
S01_condB	2021-01-20 15:41:55	87	G	NON_BLINK	1611157454.2293818	1611157454.2393813	1611157454.749408	1611157454.9593813	1611157455.1013796	0.3519716262817383	0.141998291015625	1	0
S01_condB	2021-01-20 15:41:55	88	G	NON_BLINK	1611157455.1023798	1611157455.1113808	1611157455.5213804	1611157455.7313802	1611157455.9243789	0.4029984474182129	0.19299864768981934	1	0
S01_condB	2021-01-20 15:41:55	89	G	NON_BLINK	1611157455.9243789	1611157455.9343803	1611157456.3953786	1611157456.604379	1611157456.7673805	0.37200188636779785	0.16300153732299805	1	0
S01_condB	2021-01-20 15:41:55	90	NG	BLINK	1611157456.7673805	1611157458.7853773	1611157459.1993785	1611157459.4090478	1611157460.4593754	1.2599968910217285	1.0503275394439697	1	1
S01_condB	2021-01-20 15:41:55	91	G	NON_BLINK	1611157460.4593754	1611157460.4673767	1611157460.927375	1611157461.1353767	1611157461.3833752	0.45600008964538574	0.24799847602844238	1	0
S01_condB	2021-01-20 15:41:55	92	G	NON_BLINK	1611157461.3833752	1611157461.3913758	1611157462.0003753	1611157462.2093754	1611157462.3913746	0.39099931716918945	0.18199920654296875	1	0
S01_condB	2021-01-20 15:41:55	93	G	NON_BLINK	1611157462.3923745	1611157462.4023745	1611157462.9633744	1611157463.1737895	1611157463.3193736	0.355999231338501	0.1455841064453125	1	0
S01_condB	2021-01-20 15:41:55	94	G	NON_BLINK	1611157463.3193736	1611157463.327374	1611157463.936396	1611157464.1453736	1611157464.348373	0.41197705268859863	0.20299935340881348	1	0
S01_condB	2021-01-20 15:41:55	95	G	BLINK	1611157464.348373	1611157466.3643725	1611157466.9743714	1611157467.1833713	1611157467.3783693	0.40399789810180664	0.19499802589416504	1	0
S01_condB	2021-01-20 15:41:55	96	G	NON_BLINK	1611157467.3783693	1611157467.3863711	1611157467.94837	1611157468.1585927	1611157468.296369	0.34799909591674805	0.13777637481689453	1	0
S01_condB	2021-01-20 15:41:55	97	G	NON_BLINK	1611157468.296369	1611157468.30437	1611157468.7143703	1611157468.9243705	1611157469.1203694	0.40599918365478516	0.1959989070892334	1	0
S01_condB	2021-01-20 15:41:55	98	G	NON_BLINK	1611157469.1203694	1611157469.1283684	1611157469.691369	1611157469.9023697	1611157470.017369	0.3259999752044678	0.11499929428100586	1	0
S01_condB	2021-01-20 15:41:55	99	G	NON_BLINK	1611157470.017369	1611157470.026369	1611157470.5863683	1611157470.7963693	1611157470.8903716	0.3040032386779785	0.09400224685668945	1	0
S01_condB	2021-01-20 15:41:55	100	G	BLINK	1611157470.8903716	1611157472.9103668	1611157473.3203664	1611157473.531366	1611157473.8203645	0.4999980926513672	0.2889983654022217	1	0
S01_condB	2021-01-20 15:41:55	101	G	NON_BLINK	1611157473.8203645	1611157473.8303647	1611157474.2903662	1611157474.5013638	1611157474.6383638	0.34799766540527344	0.13700008392333984	1	0
S01_condB	2021-01-20 15:41:55	102	NG	NON_BLINK	1611157474.6383638	1611157474.6463652	1611157475.0553646	1611157475.2653646	1611157476.3153625	1.259997844696045	1.0499978065490723	1	1
S01_condB	2021-01-20 15:41:55	103	G	NON_BLINK	1611157476.3153625	1611157476.323364	1611157476.7313848	1611157476.9403632	1611157477.137362	0.4059772491455078	0.19699883460998535	1	0
S01_condB	2021-01-20 15:41:55	104	G	NON_BLINK	1611157477.137362	1611157477.1453643	1611157477.7543616	1611157477.9643617	1611157478.1953611	0.44099950790405273	0.23099946975708008	1	0
S01_condB	2021-01-20 15:41:55	105	G	BLINK	1611157478.1953611	1611157480.2143674	1611157480.823359	1611157481.0333588	1611157481.116359	0.2929999828338623	0.08300018310546875	1	0
S01_condB	2021-01-20 15:41:55	106	G	NON_BLINK	1611157481.11736	1611157481.1243608	1611157481.637359	1611157481.8463585	1611157481.9483588	0.31099987030029297	0.10200023651123047	1	0
S01_condB	2021-01-20 15:41:55	107	NG	NON_BLINK	1611157481.9483588	1611157481.95636	1611157482.3663795	1611157482.5743577	1611157483.6243567	1.2579772472381592	1.0499989986419678	1	1
S01_condB	2021-01-20 15:41:55	108	G	NON_BLINK	1611157483.6253572	1611157483.6323571	1611157484.2413573	1611157484.452357	1611157484.607356	0.3659987449645996	0.1549990177154541	1	0
S01_condB	2021-01-20 15:41:55	109	NG	NON_BLINK	1611157484.607356	1611157484.615357	1611157485.2243557	1611157485.4333563	1611157486.4833574	1.2590017318725586	1.0500011444091797	1	1
S01_condB	2021-01-20 15:41:55	110	G	BLINK	1611157486.4833574	1611157488.5023532	1611157488.961354	1611157489.1723533	1611157489.3283532	0.36699914932250977	0.15599989891052246	1	0
S01_condB	2021-01-20 15:41:55	111	G	NON_BLINK	1611157489.3293533	1611157489.338353	1611157489.898353	1611157490.1163552	1611157490.3523514	0.453998327255249	0.23599624633789062	1	0
S01_condB	2021-01-20 15:41:55	112	NG	NON_BLINK	1611157490.3523514	1611157490.3603528	1611157490.9203522	1611157491.129351	1611157491.2023523	0.2820000648498535	0.07300138473510742	0	0
S01_condB	2021-01-20 15:41:55	113	G	NON_BLINK	1611157491.6183524	1611157491.6263523	1611157492.1363502	1611157492.3453507	1611157492.439349	0.30299878120422363	0.09399819374084473	1	0
S01_condB	2021-01-20 15:41:55	114	G	NON_BLINK	1611157492.439349	1611157492.44735	1611157492.8553503	1611157493.0643492	1611157493.3123503	0.4570000171661377	0.2480010986328125	1	0
S01_condB	2021-01-20 15:41:55	115	NG	BLINK	1611157493.3133507	1611157495.33335	1611157495.9443479	1611157496.1533473	1611157497.203786	1.2594380378723145	1.050438642501831	1	1
S01_condB	2021-01-20 15:41:55	116	G	NON_BLINK	1611157497.203786	1611157497.210787	1611157497.8187854	1611157498.029785	1611157498.179786	0.36100053787231445	0.15000104904174805	1	0
S01_condB	2021-01-20 15:41:55	117	G	NON_BLINK	1611157498.179786	1611157498.1887856	1611157498.701786	1611157498.9107857	1611157499.1177855	0.4159994125366211	0.2069997787475586	1	0
S01_condB	2021-01-20 15:41:55	118	G	NON_BLINK	1611157499.1177855	1611157499.1257846	1611157499.6857839	1611157499.896784	1611157500.0407841	0.35500025749206543	0.14400005340576172	1	0
S01_condB	2021-01-20 15:41:55	119	G	NON_BLINK	1611157500.0407841	1611157500.0507832	1611157500.4597843	1611157500.667783	1611157500.878784	0.41899967193603516	0.21100091934204102	1	0
S01_condB	2021-01-20 15:41:55	120	G	BLINK	1611157500.878784	1611157502.8967824	1611157503.5077808	1611157503.7167814	1611157503.8987803	0.39099955558776855	0.18199896812438965	1	0
S01_condB	2021-01-20 15:41:55	121	G	NON_BLINK	1611157503.8987803	1611157503.909781	1611157504.31978	1611157504.528781	1611157504.7117798	0.3919997215270996	0.1829988956451416	1	0
S01_condB	2021-01-20 15:41:55	122	G	NON_BLINK	1611157504.7117798	1611157504.7187812	1611157505.2288013	1611157505.4377792	1611157505.5847805	0.35597920417785645	0.1470012664794922	1	0
S01_condB	2021-01-20 15:41:55	123	G	NON_BLINK	1611157505.5847805	1611157505.593779	1611157506.0517788	1611157506.26178	1611157506.3877785	0.3359997272491455	0.12599849700927734	1	0
S01_condB	2021-01-20 15:41:55	124	G	NON_BLINK	1611157506.3877785	1611157506.3957803	1611157506.8547788	1611157507.0647798	1611157507.2317784	0.3769996166229248	0.16699862480163574	1	0
S01_condB	2021-01-20 15:41:55	125	G	BLINK	1611157507.2317784	1611157509.2547774	1611157509.8657763	1611157510.0757766	1611157510.261775	0.3959987163543701	0.18599843978881836	1	0
S01_condB	2021-01-20 15:41:55	126	G	NON_BLINK	1611157510.261775	1611157510.2697747	1611157510.6787863	1611157510.8877852	1611157511.0637865	0.38500022888183594	0.17600131034851074	1	0
S01_condB	2021-01-20 15:41:55	127	G	NON_BLINK	1611157511.0637865	1611157511.0707846	1611157511.5057845	1611157511.7137856	1611157511.8707838	0.36499929428100586	0.1569981575012207	1	0
S01_condB	2021-01-20 15:41:55	128	G	NON_BLINK	1611157511.871784	1611157511.8787858	1611157512.4397836	1611157512.6497848	1611157512.9447827	0.5049991607666016	0.2949979305267334	1	0
S01_condB	2021-01-20 15:41:55	129	G	NON_BLINK	1611157512.9447827	1611157512.9537838	1611157513.462784	1611157513.6727843	1611157513.9027824	0.4399983882904053	0.22999811172485352	1	0
S01_condB	2021-01-20 15:41:55	130	G	BLINK	1611157513.9027824	1611157515.9188035	1611157516.5308125	1611157516.7407804	1611157516.9087815	0.37796902656555176	0.1680011749267578	1	0
S01_condB	2021-01-20 15:41:55	131	G	NON_BLINK	1611157516.9087815	1611157516.9177806	1611157517.4807801	1611157517.6897807	1611157517.8217785	0.34099841117858887	0.13199782371520996	1	0
S01_condB	2021-01-20 15:41:55	132	G	NON_BLINK	1611157517.8217785	1611157517.8307807	1611157518.339801	1611157518.5497787	1611157518.704779	0.3649778366088867	0.1550002098083496	1	0
S01_condB	2021-01-20 15:41:55	133	G	NON_BLINK	1611157518.704779	1611157518.7137804	1611157519.1227818	1611157519.331779	1611157519.5037785	0.3809967041015625	0.17199945449829102	1	0
S01_condB	2021-01-20 15:41:55	134	NG	NON_BLINK	1611157519.5037785	1611157519.51178	1611157520.0357788	1611157520.2437773	1611157521.294798	1.259019136428833	1.051020622253418	1	1
S01_condB	2021-01-20 15:41:55	135	NG	BLINK	1611157521.294798	1611157523.3117764	1611157523.7717748	1611157523.9817758	1611157525.032773	1.260998249053955	1.050997257232666	1	1
S01_condB	2021-01-20 15:41:55	136	G	NON_BLINK	1611157525.032773	1611157525.041774	1611157525.5037735	1611157525.712774	1611157525.869772	0.3659985065460205	0.1569979190826416	1	0
S01_condB	2021-01-20 15:41:55	137	G	NON_BLINK	1611157525.869772	1611157525.878795	1611157526.2897735	1611157526.5117726	1611157526.6427724	0.3529989719390869	0.13099980354309082	1	0
S01_condB	2021-01-20 15:41:55	138	G	NON_BLINK	1611157526.6427724	1611157526.6537738	1611157527.1649444	1611157527.3738003	1611157527.660771	0.49582648277282715	0.2869706153869629	1	0
S01_condB	2021-01-20 15:41:55	139	G	NON_BLINK	1611157527.660771	1611157527.6687727	1611157528.0787723	1611157528.2947724	1611157528.4497724	0.3710000514984131	0.1549999713897705	1	0
S01_condB	2021-01-20 15:41:55	140	G	BLINK	1611157528.4497724	1611157530.4707708	1611157530.9317696	1611157531.1428027	1611157531.2897692	0.3579995632171631	0.14696645736694336	1	0
S01_condB	2021-01-20 15:41:55	141	NG	NON_BLINK	1611157531.2897692	1611157531.2977686	1611157531.7097692	1611157531.9197686	1611157532.9697664	1.2599971294403076	1.0499978065490723	1	1
S01_condB	2021-01-20 15:41:55	142	G	NON_BLINK	1611157532.9697664	1611157532.9787688	1611157533.5887673	1611157533.7977674	1611157534.0187678	0.43000054359436035	0.22100043296813965	1	0
S01_condB	2021-01-20 15:41:55	143	G	NON_BLINK	1611157534.0187678	1611157534.0287676	1611157534.5387654	1611157534.7477953	1611157534.9307668	0.3920013904571533	0.18297147750854492	1	0
S01_condB	2021-01-20 15:41:55	144	G	NON_BLINK	1611157534.9317663	1611157534.9387658	1611157535.3987663	1611157535.6087651	1611157535.808765	0.40999865531921387	0.19999980926513672	1	0
S01_condB	2021-01-20 15:41:55	145	G	BLINK	1611157535.809765	1611157537.8277636	1611157538.389763	1611157538.5987635	1611157538.799764	0.4100008010864258	0.20100045204162598	1	0
S01_condB	2021-01-20 15:41:55	146	G	NON_BLINK	1611157538.8007631	1611157538.8097644	1611157539.3217633	1611157539.5327632	1611157539.687763	0.365999698638916	0.1549997329711914	1	0
S01_condB	2021-01-20 15:41:55	147	G	NON_BLINK	1611157539.687763	1611157539.697763	1611157540.157762	1611157540.3667624	1611157540.5207624	0.36300039291381836	0.15400004386901855	1	0
S01_condB	2021-01-20 15:41:55	148	G	NON_BLINK	1611157540.5207624	1611157540.5297616	1611157540.9397633	1611157541.1497622	1611157541.3987606	0.4589972496032715	0.24899840354919434	1	0
S01_condB	2021-01-20 15:41:55	149	G	NON_BLINK	1611157541.3987606	1611157541.4067602	1611157541.8677611	1611157542.077759	1611157542.251761	0.3839998245239258	0.17400193214416504	1	0
S01_condB	2021-01-20 15:41:55	150	G	BLINK	1611157542.251761	1611157544.270759	1611157544.7797794	1611157544.9907575	1611157545.1917577	0.41197824478149414	0.20100021362304688	1	0
S01_condB	2021-01-20 15:41:55	151	G	NON_BLINK	1611157545.1917577	1611157545.2017577	1611157545.8147573	1611157546.0237782	1611157546.1297567	0.3149993419647217	0.10597848892211914	1	0
S01_condB	2021-01-20 15:41:55	152	G	NON_BLINK	1611157546.1297567	1611157546.1377778	1611157546.7477584	1611157546.9577565	1611157547.1437576	0.3959991931915283	0.18600106239318848	1	0
S01_condB	2021-01-20 15:41:55	153	G	NON_BLINK	1611157547.1437576	1611157547.1527557	1611157547.7127564	1611157547.927756	1611157548.0267587	0.31400227546691895	0.09900259971618652	1	0
S01_condB	2021-01-20 15:41:55	154	G	NON_BLINK	1611157548.0267587	1611157548.036757	1611157548.498755	1611157548.7077546	1611157548.8847556	0.3860006332397461	0.1770009994506836	1	0
S01_condB	2021-01-20 15:41:55	155	G	BLINK	1611157548.8847556	1611157550.9037547	1611157551.4647532	1611157551.673753	1611157551.884753	0.4199998378753662	0.2109999656677246	1	0
S01_condB	2021-01-20 15:41:55	156	NG	NON_BLINK	1611157551.884753	1611157551.8937547	1611157552.5037525	1611157552.7137525	1611157552.8237514	0.31999897956848145	0.10999894142150879	0	0
S01_condB	2021-01-20 15:41:55	157	G	NON_BLINK	1611157553.2337513	1611157553.2417526	1611157553.8507507	1611157554.0597506	1611157554.1877508	0.33700013160705566	0.12800025939941406	1	0
S01_condB	2021-01-20 15:41:55	158	NG	NON_BLINK	1611157554.1877508	1611157554.197751	1611157554.7077508	1611157554.9177504	1611157555.9677484	1.2599976062774658	1.0499980449676514	1	1
S01_condB	2021-01-20 15:41:55	159	NG	NON_BLINK	1611157555.9677484	1611157555.975812	1611157556.4367511	1611157556.6477487	1611157557.6977472	1.2609961032867432	1.0499985218048096	1	1
S01_condB	2021-01-20 15:41:55	160	G	BLINK	1611157557.6987486	1611157559.7197475	1611157560.2307458	1611157560.4417472	1611157560.654745	0.4239993095397949	0.2129979133605957	1	0
S01_condB	2021-01-20 15:41:55	161	G	NON_BLINK	1611157560.654745	1611157560.6677463	1611157561.2307456	1611157561.4427469	1611157561.653746	0.4230003356933594	0.2109990119934082	1	0
S01_condB	2021-01-20 15:41:55	162	G	NON_BLINK	1611157561.653746	1611157561.663745	1611157562.1727724	1611157562.3847446	1611157562.7017436	0.5289711952209473	0.3169989585876465	1	0
S01_condB	2021-01-20 15:41:55	163	G	NON_BLINK	1611157562.7017436	1611157562.7107437	1611157563.219745	1611157563.4287453	1611157563.6197426	0.3999977111816406	0.19099736213684082	1	0
S01_condB	2021-01-20 15:41:55	164	NG	NON_BLINK	1611157563.6197426	1611157563.6283972	1611157564.137746	1611157564.3467412	1611157565.3967426	1.2589964866638184	1.0500013828277588	1	1
S01_condB	2021-01-20 15:41:55	165	G	BLINK	1611157565.3967426	1611157567.414741	1611157567.9777393	1611157568.1897385	1611157568.4637418	0.48600244522094727	0.274003267288208	1	0
S01_condB	2021-01-20 15:41:55	166	G	NON_BLINK	1611157568.4637418	1611157568.4737399	1611157568.9837394	1611157569.1967382	1611157569.5187392	0.5349998474121094	0.32200098037719727	1	0
S01_condB	2021-01-20 15:41:55	167	G	NON_BLINK	1611157569.5187392	1611157569.5287383	1611157570.0957382	1611157570.3067362	1611157570.492738	0.3969998359680176	0.18600177764892578	1	0
S01_condB	2021-01-20 15:41:55	168	G	NON_BLINK	1611157570.492738	1611157570.5107381	1611157570.9217362	1611157571.1337366	1611157571.3717365	0.4500002861022949	0.23799991607666016	1	0
S01_condB	2021-01-20 15:41:55	169	G	NON_BLINK	1611157571.3717365	1611157571.3807387	1611157571.8437347	1611157572.0557363	1611157572.2897358	0.4460010528564453	0.23399949073791504	1	0
S01_condB	2021-01-20 15:41:55	170	NG	BLINK	1611157572.2897358	1611157574.3087335	1611157574.9187355	1611157575.130734	1611157576.1817338	1.262998342514038	1.0509998798370361	1	1
S01_condB	2021-01-20 15:41:55	171	NG	NON_BLINK	1611157576.1817338	1611157576.1957319	1611157576.6567333	1611157576.8667321	1611157577.0167332	0.3599998950958252	0.15000104904174805	0	0
S01_condB	2021-01-20 15:41:55	172	G	NON_BLINK	1611157577.4277523	1611157577.4357526	1611157578.0027316	1611157578.2127318	1611157578.3857307	0.3829991817474365	0.17299890518188477	1	0
S01_condB	2021-01-20 15:41:55	173	G	NON_BLINK	1611157578.3857307	1611157578.394731	1611157578.8037317	1611157579.0127323	1611157579.334733	0.5310013294219971	0.32200074195861816	1	0
S01_condB	2021-01-20 15:41:55	174	G	NON_BLINK	1611157579.334733	1611157579.3427312	1611157579.9037302	1611157580.113731	1611157580.2577302	0.3540000915527344	0.14399933815002441	1	0
S01_condB	2021-01-20 15:41:55	175	G	BLINK	1611157580.2577302	1611157582.2767286	1611157582.6867313	1611157582.8957272	1611157583.2077289	0.5209975242614746	0.31200170516967773	1	0
S01_condB	2021-01-20 15:41:55	176	G	NON_BLINK	1611157583.2077289	1611157583.215727	1611157583.625727	1611157583.8347266	1611157584.1307268	0.5049998760223389	0.29600024223327637	1	0
S01_condB	2021-01-20 15:41:55	177	G	NON_BLINK	1611157584.1307268	1611157584.1387262	1611157584.598727	1611157584.8077266	1611157584.9887269	0.3899998664855957	0.1810002326965332	1	0
S01_condB	2021-01-20 15:41:55	178	NG	NON_BLINK	1611157584.9887269	1611157584.9977264	1611157585.4577465	1611157585.668756	1611157586.7187243	1.2609777450561523	1.0499682426452637	1	1
S01_condB	2021-01-20 15:41:55	179	G	NON_BLINK	1611157586.7187243	1611157586.7277257	1611157587.1367254	1611157587.3457246	1611157587.5827236	0.4459981918334961	0.2369990348815918	1	0
S01_condB	2021-01-20 15:41:55	180	G	BLINK	1611157587.5827236	1611157589.6007233	1611157590.1107228	1611157590.3197212	1611157590.5477216	0.4369988441467285	0.22800040245056152	1	0
S01_condB	2021-01-20 15:41:55	181	G	NON_BLINK	1611157590.5477216	1611157590.5697227	1611157591.1317215	1611157591.3407207	1611157591.6367202	0.5049986839294434	0.29599952697753906	1	0
S01_condB	2021-01-20 15:41:55	182	G	NON_BLINK	1611157591.6367202	1611157591.647722	1611157592.2577212	1611157592.4687197	1611157592.6947196	0.4369983673095703	0.2259998321533203	1	0
S01_condB	2021-01-20 15:41:55	183	G	NON_BLINK	1611157592.6947196	1611157592.7027197	1611157593.311719	1611157593.5207198	1611157593.7037196	0.392000675201416	0.182999849319458	1	0
S01_condB	2021-01-20 15:41:55	184	NG	NON_BLINK	1611157593.7037196	1611157593.7137194	1611157594.17372	1611157594.3827183	1611157595.4337175	1.2599976062774658	1.0509991645812988	1	1
S01_condB	2021-01-20 15:41:55	185	G	BLINK	1611157595.4337175	1611157597.4527388	1611157598.062715	1611157598.272717	1611157598.459716	0.3970010280609131	0.18699908256530762	1	0
S01_condB	2021-01-20 15:41:55	186	G	NON_BLINK	1611157598.459716	1611157598.4677148	1611157598.9277153	1611157599.136716	1611157599.3677137	0.4399983882904053	0.23099780082702637	1	0
S01_condB	2021-01-20 15:41:55	187	NG	NON_BLINK	1611157599.3677137	1611157599.3757157	1611157599.785715	1611157599.9947138	1611157601.0447125	1.2589974403381348	1.0499987602233887	1	1
S01_condB	2021-01-20 15:41:55	188	G	NON_BLINK	1611157601.0447125	1611157601.0537133	1611157601.5627136	1611157601.773712	1611157601.956713	0.3939993381500244	0.18300104141235352	1	0
S01_condB	2021-01-20 15:41:55	189	NG	NON_BLINK	1611157601.956713	1611157601.9657342	1611157602.4247131	1611157602.6357164	1611157603.6897106	1.2649974822998047	1.0539941787719727	1	1
S01_condB	2021-01-20 15:41:55	190	NG	BLINK	1611157603.6907105	1611157605.7097092	1611157606.3197098	1611157606.52971	1611157607.5807073	1.2609975337982178	1.050997257232666	1	1
S01_condB	2021-01-20 15:41:55	191	G	NON_BLINK	1611157607.5807073	1611157607.5897086	1611157607.9997077	1611157608.2107074	1611157608.4037066	0.40399885177612305	0.19299912452697754	1	0
S01_condB	2021-01-20 15:41:55	192	NG	NON_BLINK	1611157608.4037066	1611157608.4127078	1611157608.8227065	1611157609.032708	1611157610.0837057	1.2609992027282715	1.0509977340698242	1	1
S01_condB	2021-01-20 15:41:55	193	G	NON_BLINK	1611157610.0837057	1611157610.0917056	1611157610.7017076	1611157610.9117048	1611157611.1277046	0.4259970188140869	0.21599984169006348	1	0
S01_condB	2021-01-20 15:41:55	194	G	NON_BLINK	1611157611.1287048	1611157611.1367044	1611157611.746704	1611157611.9557083	1611157612.2667036	0.5199995040893555	0.31099534034729004	1	0
S01_condB	2021-01-20 15:41:55	195	G	BLINK	1611157612.2667036	1611157614.285724	1611157614.6957016	1611157614.9057028	1611157615.1617002	0.46599864959716797	0.2559974193572998	1	0
S01_condB	2021-01-20 15:41:55	196	G	NON_BLINK	1611157615.1617002	1611157615.1707044	1611157615.6807024	1611157615.8897016	1611157616.100703	0.4200005531311035	0.21100139617919922	1	0
S01_condB	2021-01-20 15:41:55	197	G	NON_BLINK	1611157616.100703	1611157616.1107016	1611157616.673701	1611157616.8837333	1611157616.9926996	0.3189985752105713	0.10896635055541992	1	0
S01_condB	2021-01-20 15:41:55	198	G	NON_BLINK	1611157616.9937005	1611157617.002723	1611157617.5127218	1611157617.7287004	1611157617.8916984	0.37897658348083496	0.16299796104431152	1	0
S01_condB	2021-01-20 15:41:55	199	G	NON_BLINK	1611157617.8916984	1611157617.8997002	1611157618.307701	1611157618.5177	1611157618.7347012	0.4270000457763672	0.21700119972229004	1	0
S01_condB	2021-01-20 15:41:55	200	G	BLINK	1611157618.7347012	1611157620.7557201	1611157621.3206968	1611157621.529697	1611157621.7596962	0.4389994144439697	0.22999930381774902	1	0

PARTICIPANT	SESSION_TIMESTAMP	TRIAL_N	CURRENT_TRIAL	TRIAL_TYPE	TRIAL_START_TIME	FIXATION_ONSET_TIME	STIM_ONSET_TIME	MASK_ONSET_TIME	RESPONSE_GIVEN_TIME	RT_REL_STIM_ONSET	RT_REL_MASK_ONSET	ACCURACY	TIMEOUT
S02_gonogo_CondA	2021-01-20 21:24:11	1	G	NON_BLINK	1611177903.3491147	1611177903.3611166	1611177903.9261143	1611177904.1391165	1611177904.5781143	0.6519999504089355	0.438997745513916	1	0
S02_gonogo_CondA	2021-01-20 21:24:11	2	G	NON_BLINK	1611177904.5781143	1611177904.586116	1611177904.9941154	1611177905.2061129	1611177905.3951132	0.4009978771209717	0.18900036811828613	1	0
S02_gonogo_CondA	2021-01-20 21:24:11	3	G	NON_BLINK	1611177905.3951132	1611177905.403115	1611177906.018114	1611177906.237116	1611177906.3231127	0.30499863624572754	0.08599662780761719	1	0
S02_gonogo_CondA	2021-01-20 21:24:11	4	NG	NON_BLINK	1611177906.3231127	1611177906.331112	1611177906.7901142	1611177906.999114	1611177907.0801134	0.28999924659729004	0.08099937438964844	0	0
S02_gonogo_CondA	2021-01-20 21:24:11	5	G	BLINK	1611177907.4941118	1611177909.5141141	1611177909.9731104	1611177910.1831107	1611177910.4111104	0.437999963760376	0.22799968719482422	1	0
S02_gonogo_CondA	2021-01-20 21:24:11	6	NG	NON_BLINK	1611177910.4111104	1611177910.419111	1611177911.0281093	1611177911.2381089	1611177912.288108	1.2599987983703613	1.0499992370605469	1	1
S02_gonogo_CondA	2021-01-20 21:24:11	7	G	NON_BLINK	1611177912.288108	1611177912.2961092	1611177912.8051076	1611177913.0151088	1611177913.206108	0.4010004997253418	0.19099926948547363	1	0
S02_gonogo_CondA	2021-01-20 21:24:11	8	G	NON_BLINK	1611177913.206108	1611177913.2141078	1611177913.7831092	1611177913.991107	1611177914.2631063	0.4799971580505371	0.2719993591308594	1	0
S02_gonogo_CondA	2021-01-20 21:24:11	9	G	NON_BLINK	1611177914.2631063	1611177914.2711067	1611177914.8851068	1611177915.094231	1611177915.246111	0.361004114151001	0.15188002586364746	1	0
S02_gonogo_CondA	2021-01-20 21:24:11	10	G	BLINK	1611177915.246111	1611177917.2661119	1611177917.7761104	1611177917.9841125	1611177918.1851087	0.4089982509613037	0.20099616050720215	1	0
S02_gonogo_CondA	2021-01-20 21:24:11	11	G	NON_BLINK	1611177918.1861095	1611177918.19311	1611177918.7531085	1611177918.9621098	1611177919.1131098	0.3600013256072998	0.1510000228881836	1	0
S02_gonogo_CondA	2021-01-20 21:24:11	12	G	NON_BLINK	1611177919.1131098	1611177919.1221118	1611177919.6311076	1611177919.8401089	1611177919.9661074	0.33499979972839355	0.12599849700927734	1	0
S02_gonogo_CondA	2021-01-20 21:24:11	13	G	NON_BLINK	1611177919.9661074	1611177919.9741085	1611177920.5821087	1611177920.7931077	1611177920.9091058	0.3269970417022705	0.1159980297088623	1	0
S02_gonogo_CondA	2021-01-20 21:24:11	14	G	NON_BLINK	1611177920.9091058	1611177920.9171066	1611177921.428108	1611177921.638107	1611177921.772106	0.3439979553222656	0.13399887084960938	1	0
S02_gonogo_CondA	2021-01-20 21:24:11	15	G	BLINK	1611177921.772106	1611177923.793105	1611177924.2511091	1611177924.4641051	1611177924.6111042	0.35999512672424316	0.14699912071228027	1	0
S02_gonogo_CondA	2021-01-20 21:24:11	16	G	NON_BLINK	1611177924.6111042	1611177924.6191046	1611177925.229105	1611177925.439104	1611177925.544104	0.3149991035461426	0.10500001907348633	1	0
S02_gonogo_CondA	2021-01-20 21:24:11	17	G	NON_BLINK	1611177925.544104	1611177925.551104	1611177926.111124	1611177926.3201034	1611177926.4211018	0.30997776985168457	0.1009984016418457	1	0
S02_gonogo_CondA	2021-01-20 21:24:11	18	G	NON_BLINK	1611177926.4221022	1611177926.4301035	1611177927.039103	1611177927.2491024	1611177928.2991035	1.260000467300415	1.0500011444091797	0	1
S02_gonogo_CondA	2021-01-20 21:24:11	19	G	NON_BLINK	1611177928.7091002	1611177928.7161021	1611177929.325101	1611177929.5350988	1611177929.748102	0.4230010509490967	0.21300315856933594	1	0
S02_gonogo_CondA	2021-01-20 21:24:11	20	G	BLINK	1611177929.748102	1611177931.7641	1611177932.2720983	1611177932.481099	1611177932.7670984	0.49500012397766113	0.2859995365142822	1	0
S02_gonogo_CondA	2021-01-20 21:24:11	21	NG	NON_BLINK	1611177932.7670984	1611177932.7780983	1611177933.1880982	1611177933.398098	1611177934.4480958	1.2599976062774658	1.0499978065490723	1	1
S02_gonogo_CondA	2021-01-20 21:24:11	22	G	NON_BLINK	1611177934.4480958	1611177934.4590957	1611177935.022097	1611177935.2310977	1611177935.4300964	0.40799927711486816	0.19899868965148926	1	0
S02_gonogo_CondA	2021-01-20 21:24:11	23	G	NON_BLINK	1611177935.4300964	1611177935.438095	1611177935.999098	1611177936.2090976	1611177936.715094	0.7159960269927979	0.5059964656829834	1	0
S02_gonogo_CondA	2021-01-20 21:24:11	24	NG	NON_BLINK	1611177936.715094	1611177936.7230961	1611177937.1830935	1611177937.3920941	1611177938.4420922	1.2589986324310303	1.0499980449676514	1	1
S02_gonogo_CondA	2021-01-20 21:24:11	25	G	BLINK	1611177938.4420922	1611177940.460093	1611177940.9190917	1611177941.1270905	1611177941.3980916	0.4789998531341553	0.27100110054016113	1	0
S02_gonogo_CondA	2021-01-20 21:24:11	26	G	NON_BLINK	1611177941.3990908	1611177941.4060915	1611177941.8170915	1611177942.0260909	1611177942.2360897	0.41899824142456055	0.20999884605407715	1	0
S02_gonogo_CondA	2021-01-20 21:24:11	27	G	NON_BLINK	1611177942.2360897	1611177942.2440908	1611177942.8060918	1611177943.0140903	1611177943.1840885	0.37799668312072754	0.1699981689453125	1	0
S02_gonogo_CondA	2021-01-20 21:24:11	28	G	NON_BLINK	1611177943.1840885	1611177943.1920898	1611177943.7010899	1611177943.9150891	1611177944.1020875	0.4009976387023926	0.1869983673095703	1	0
S02_gonogo_CondA	2021-01-20 21:24:11	29	NG	NON_BLINK	1611177944.1020875	1611177944.1100886	1611177944.6190886	1611177944.829088	1611177944.9750888	0.3560001850128174	0.14600086212158203	0	0
S02_gonogo_CondA	2021-01-20 21:24:11	30	G	BLINK	1611177945.3890872	1611177947.4080863	1611177947.9190872	1611177948.1290855	1611177948.5510857	0.6319985389709473	0.4220001697540283	1	0
S02_gonogo_CondA	2021-01-20 21:24:11	31	NG	NON_BLINK	1611177948.5510857	1611177948.558086	1611177949.0660882	1611177949.276085	1611177950.327083	1.2609949111938477	1.0509982109069824	1	1
S02_gonogo_CondA	2021-01-20 21:24:11	32	G	NON_BLINK	1611177950.327083	1611177950.3350854	1611177950.7960844	1611177951.0080843	1611177951.2650833	0.46899890899658203	0.25699901580810547	1	0
S02_gonogo_CondA	2021-01-20 21:24:11	33	G	NON_BLINK	1611177951.2650833	1611177951.2720835	1611177951.680082	1611177951.888082	1611177952.3290813	0.6489992141723633	0.44099926948547363	1	0
S02_gonogo_CondA	2021-01-20 21:24:11	34	G	NON_BLINK	1611177952.3290813	1611177952.3370817	1611177952.846087	1611177953.0650818	1611177953.211082	0.36499500274658203	0.14600014686584473	1	0
S02_gonogo_CondA	2021-01-20 21:24:11	35	G	BLINK	1611177953.211082	1611177955.2270808	1611177955.6380794	1611177955.8470786	1611177956.235078	0.5969986915588379	0.3879995346069336	1	0
S02_gonogo_CondA	2021-01-20 21:24:11	36	G	NON_BLINK	1611177956.235078	1611177956.2430801	1611177956.6530795	1611177956.8730786	1611177957.078077	0.42499756813049316	0.20499849319458008	1	0
S02_gonogo_CondA	2021-01-20 21:24:11	37	NG	NON_BLINK	1611177957.078077	1611177957.0860791	1611177957.6950774	1611177957.9050796	1611177958.9560773	1.2609999179840088	1.0509977340698242	1	1
S02_gonogo_CondA	2021-01-20 21:24:11	38	G	NON_BLINK	1611177958.9560773	1611177958.9650774	1611177959.575075	1611177959.785076	1611177960.1630766	0.5880017280578613	0.37800073623657227	1	0
S02_gonogo_CondA	2021-01-20 21:24:11	39	G	NON_BLINK	1611177960.1630766	1611177960.1730762	1611177960.5850759	1611177960.7940755	1611177961.076077	0.4910011291503906	0.2820014953613281	1	0
S02_gonogo_CondA	2021-01-20 21:24:11	40	G	BLINK	1611177961.076077	1611177963.0960755	1611177963.6050756	1611177963.8140771	1611177963.9950738	0.389998197555542	0.18099665641784668	1	0
S02_gonogo_CondA	2021-01-20 21:24:11	41	NG	NON_BLINK	1611177963.9950738	1611177964.004074	1611177964.4400737	1611177964.6530743	1611177965.703071	1.2629973888397217	1.0499968528747559	1	1
S02_gonogo_CondA	2021-01-20 21:24:11	42	G	NON_BLINK	1611177965.703071	1611177965.7130706	1611177966.3250787	1611177966.5350814	1611177966.7530787	0.42799997329711914	0.21799731254577637	1	0
S02_gonogo_CondA	2021-01-20 21:24:11	43	G	NON_BLINK	1611177966.7540793	1611177966.7620792	1611177967.2220783	1611177967.4320796	1611177967.6110783	0.38899993896484375	0.17899870872497559	1	0
S02_gonogo_CondA	2021-01-20 21:24:11	44	G	NON_BLINK	1611177967.6120794	1611177967.6200771	1611177968.1800787	1611177968.3880773	1611177968.564077	0.38399815559387207	0.17599964141845703	1	0
S02_gonogo_CondA	2021-01-20 21:24:11	45	NG	BLINK	1611177968.564077	1611177970.580076	1611177971.040075	1611177971.2490752	1611177972.2990744	1.2589993476867676	1.0499992370605469	1	1
S02_gonogo_CondA	2021-01-20 21:24:11	46	NG	NON_BLINK	1611177972.2990744	1611177972.3080754	1611177972.7680745	1611177972.9810734	1611177974.0310738	1.2629992961883545	1.0500004291534424	1	1
S02_gonogo_CondA	2021-01-20 21:24:11	47	G	NON_BLINK	1611177974.0310738	1611177974.0430744	1611177974.5550737	1611177974.766073	1611177975.0400734	0.4849996566772461	0.2740004062652588	1	0
S02_gonogo_CondA	2021-01-20 21:24:11	48	NG	NON_BLINK	1611177975.0400734	1611177975.048074	1611177975.6100705	1611177975.8220708	1611177976.8720694	1.2619988918304443	1.0499985218048096	1	1
S02_gonogo_CondA	2021-01-20 21:24:11	49	G	NON_BLINK	1611177976.8720694	1611177976.8810706	1611177977.3900702	1611177977.6030707	1611177977.7440715	0.3540012836456299	0.14100074768066406	1	0
S02_gonogo_CondA	2021-01-20 21:24:11	50	NG	BLINK	1611177977.7440715	1611177979.7620697	1611177980.223068	1611177980.4330688	1611177981.4830673	1.2599992752075195	1.0499985218048096	1	1
S02_gonogo_CondA	2021-01-20 21:24:11	51	G	NON_BLINK	1611177981.4830673	1611177981.4920676	1611177981.952066	1611177982.1610677	1611177982.3230672	0.3710012435913086	0.16199946403503418	1	0
S02_gonogo_CondA	2021-01-20 21:24:11	52	G	NON_BLINK	1611177982.3230672	1611177982.3330672	1611177982.7940674	1611177983.0040658	1611177983.0710685	0.27700114250183105	0.06700277328491211	1	0
S02_gonogo_CondA	2021-01-20 21:24:11	53	G	NON_BLINK	1611177983.0710685	1611177983.0780678	1611177983.6870675	1611177983.8970659	1611177983.963066	0.275998592376709	0.06600022315979004	1	0
S02_gonogo_CondA	2021-01-20 21:24:11	54	G	NON_BLINK	1611177983.9640665	1611177983.9750671	1611177984.536066	1611177984.7450655	1611177984.8670642	0.33099818229675293	0.12199878692626953	1	0
S02_gonogo_CondA	2021-01-20 21:24:11	55	NG	BLINK	1611177984.8670642	1611177986.892065	1611177987.4020638	1611177987.6110623	1611177988.6620605	1.2599966526031494	1.0509982109069824	1	1
S02_gonogo_CondA	2021-01-20 21:24:11	56	G	NON_BLINK	1611177988.6620605	1611177988.6710627	1611177989.1800609	1611177989.403062	1611177989.5960596	0.4159986972808838	0.19299745559692383	1	0
S02_gonogo_CondA	2021-01-20 21:24:11	57	G	NON_BLINK	1611177989.5960596	1611177989.6040614	1611177990.0640628	1611177990.273062	1611177990.3840609	0.31999802589416504	0.11099886894226074	1	0
S02_gonogo_CondA	2021-01-20 21:24:11	58	NG	NON_BLINK	1611177990.3840609	1611177990.392061	1611177991.00106	1611177991.2100604	1611177992.2600603	1.259000301361084	1.0499999523162842	1	1
S02_gonogo_CondA	2021-01-20 21:24:11	59	G	NON_BLINK	1611177992.2600603	1611177992.270058	1611177992.7310581	1611177992.9410608	1611177993.1930585	0.46200037002563477	0.251997709274292	1	0
S02_gonogo_CondA	2021-01-20 21:24:11	60	G	BLINK	1611177993.1930585	1611177995.2130566	1611177995.6720552	1611177995.888056	1611177996.0780554	0.40600013732910156	0.18999934196472168	1	0
S02_gonogo_CondA	2021-01-20 21:24:11	61	G	NON_BLINK	1611177996.0780554	1611177996.085055	1611177996.543057	1611177996.7520566	1611177996.9210558	0.37799882888793945	0.16899919509887695	1	0
S02_gonogo_CondA	2021-01-20 21:24:11	62	G	NON_BLINK	1611177996.9210558	1611177996.9310567	1611177997.3420568	1611177997.5520554	1611177997.7030542	0.36099743843078613	0.15099883079528809	1	0
S02_gonogo_CondA	2021-01-20 21:24:11	63	G	NON_BLINK	1611177997.7030542	1611177997.7150555	1611177998.2760549	1611177998.485054	1611177998.5400546	0.26399970054626465	0.05500054359436035	1	0
S02_gonogo_CondA	2021-01-20 21:24:11	64	NG	NON_BLINK	1611177998.5400546	1611177998.5470548	1611177998.9560547	1611177999.1660535	1611178000.2170527	1.260998010635376	1.0509991645812988	1	1
S02_gonogo_CondA	2021-01-20 21:24:11	65	G	BLINK	1611178000.2170527	1611178002.2400503	1611178002.8000507	1611178003.0090513	1611178003.2350495	0.4349987506866455	0.2259981632232666	1	0
S02_gonogo_CondA	2021-01-20 21:24:11	66	G	NON_BLINK	1611178003.2350495	1611178003.2460496	1611178003.6550508	1611178003.8650494	1611178003.9480488	0.2929980754852295	0.08299946784973145	1	0
S02_gonogo_CondA	2021-01-20 21:24:11	67	G	NON_BLINK	1611178003.9480488	1611178003.9570498	1611178004.4670513	1611178004.6750512	1611178004.7750487	0.307997465133667	0.09999752044677734	1	0
S02_gonogo_CondA	2021-01-20 21:24:11	68	G	NON_BLINK	1611178004.7750487	1611178004.7830503	1611178005.292049	1611178005.5010488	1611178005.59305	0.30100107192993164	0.09200119972229004	1	0
S02_gonogo_CondA	2021-01-20 21:24:11	69	G	NON_BLINK	1611178005.59305	1611178005.6030495	1611178006.1630478	1611178006.3710477	1611178006.450047	0.2869992256164551	0.07899928092956543	1	0
S02_gonogo_CondA	2021-01-20 21:24:11	70	NG	BLINK	1611178006.450047	1611178008.4690464	1611178009.0350463	1611178009.2440457	1611178010.2940447	1.2589983940124512	1.0499989986419678	1	1
S02_gonogo_CondA	2021-01-20 21:24:11	71	G	NON_BLINK	1611178010.2940447	1611178010.303045	1611178010.8650434	1611178011.076043	1611178011.2400439	0.3750004768371582	0.1640009880065918	1	0
S02_gonogo_CondA	2021-01-20 21:24:11	72	G	NON_BLINK	1611178011.241044	1611178011.2480445	1611178011.8080454	1611178012.021045	1611178012.1780434	0.3699979782104492	0.1569983959197998	1	0
S02_gonogo_CondA	2021-01-20 21:24:11	73	G	NON_BLINK	1611178012.179044	1611178012.1870427	1611178012.5970438	1611178012.8060446	1611178012.9370437	0.3399999141693115	0.13099908828735352	1	0
S02_gonogo_CondA	2021-01-20 21:24:11	74	G	NON_BLINK	1611178012.9370437	1611178012.9450448	1611178013.5570412	1611178013.766042	1611178013.9450402	0.3879990577697754	0.17899823188781738	1	0
S02_gonogo_CondA	2021-01-20 21:24:11	75	G	BLINK	1611178013.9450402	1611178015.9610417	1611178016.3760412	1611178016.585039	1611178016.935039	0.5589978694915771	0.35000014305114746	1	0
S02_gonogo_CondA	2021-01-20 21:24:11	76	G	NON_BLINK	1611178016.935039	1611178016.9430387	1611178017.4610398	1611178017.6720395	1611178017.7920394	0.33099961280822754	0.11999988555908203	1	0
S02_gonogo_CondA	2021-01-20 21:24:11	77	G	NON_BLINK	1611178017.7920394	1611178017.800037	1611178018.2580376	1611178018.4680398	1611178018.5740378	0.31600022315979004	0.10599803924560547	1	0
S02_gonogo_CondA	2021-01-20 21:24:11	78	NG	NON_BLINK	1611178018.5740378	1611178018.5870383	1611178018.9960384	1611178019.2050378	1611178020.255036	1.2589976787567139	1.0499982833862305	1	1
S02_gonogo_CondA	2021-01-20 21:24:11	79	G	NON_BLINK	1611178020.255036	1611178020.263037	1611178020.8250356	1611178021.0350385	1611178021.2580357	0.4330000877380371	0.22299718856811523	1	0
S02_gonogo_CondA	2021-01-20 21:24:11	80	G	BLINK	1611178021.2580357	1611178023.2770336	1611178023.7870345	1611178024.000034	1611178024.157033	0.3699984550476074	0.156998872756958	1	0
S02_gonogo_CondA	2021-01-20 21:24:11	81	G	NON_BLINK	1611178024.157033	1611178024.1660333	1611178024.6260333	1611178024.8350317	1611178024.9140322	0.28799891471862793	0.07900047302246094	1	0
S02_gonogo_CondA	2021-01-20 21:24:11	82	NG	NON_BLINK	1611178024.9150338	1611178024.922033	1611178025.332033	1611178025.5420322	1611178025.6720326	0.3399996757507324	0.13000035285949707	0	0
S02_gonogo_CondA	2021-01-20 21:24:11	83	G	NON_BLINK	1611178026.083032	1611178026.1020322	1611178026.5110323	1611178026.7210329	1611178027.02703	0.5159976482391357	0.3059971332550049	1	0
S02_gonogo_CondA	2021-01-20 21:24:11	84	NG	NON_BLINK	1611178027.02703	1611178027.0360312	1611178027.6460311	1611178027.854033	1611178028.9040313	1.258000135421753	1.0499982833862305	1	1
S02_gonogo_CondA	2021-01-20 21:24:11	85	G	BLINK	1611178028.9040313	1611178030.927029	1611178031.4420302	1611178031.6510272	1611178031.9270265	0.48499631881713867	0.2759993076324463	1	0
S02_gonogo_CondA	2021-01-20 21:24:11	86	G	NON_BLINK	1611178031.9270265	1611178031.9360266	1611178032.499027	1611178032.710026	1611178032.8400252	0.34099817276000977	0.12999916076660156	1	0
S02_gonogo_CondA	2021-01-20 21:24:11	87	NG	NON_BLINK	1611178032.8400252	1611178032.850026	1611178033.263028	1611178033.4750276	1611178034.5260258	1.2629978656768799	1.0509982109069824	1	1
S02_gonogo_CondA	2021-01-20 21:24:11	88	G	NON_BLINK	1611178034.5260258	1611178034.542026	1611178035.1030254	1611178035.3120248	1611178036.3620234	1.258997917175293	1.0499985218048096	0	1
S02_gonogo_CondA	2021-01-20 21:24:11	89	NG	NON_BLINK	1611178036.7710228	1611178036.7790241	1611178037.1890225	1611178037.3980227	1611178038.4480224	1.2589998245239258	1.049999713897705	1	1
S02_gonogo_CondA	2021-01-20 21:24:11	90	G	BLINK	1611178038.4480224	1611178040.4660268	1611178040.8760264	1611178041.085025	1611178041.3630254	0.4869990348815918	0.2780003547668457	1	0
S02_gonogo_CondA	2021-01-20 21:24:11	91	G	NON_BLINK	1611178041.3630254	1611178041.371026	1611178041.9800258	1611178042.1900244	1611178042.3220263	0.34200048446655273	0.1320018768310547	1	0
S02_gonogo_CondA	2021-01-20 21:24:11	92	G	NON_BLINK	1611178042.3220263	1611178042.3330255	1611178042.943025	1611178043.1540256	1611178043.284023	0.34099793434143066	0.12999749183654785	1	0
S02_gonogo_CondA	2021-01-20 21:24:11	93	G	NON_BLINK	1611178043.284023	1611178043.2930236	1611178043.852025	1611178044.0630257	1611178044.237023	0.384998083114624	0.1739974021911621	1	0
S02_gonogo_CondA	2021-01-20 21:24:11	94	G	NON_BLINK	1611178044.237023	1611178044.2450242	1611178044.7540224	1611178044.962024	1611178045.180021	0.4259986877441406	0.21799707412719727	1	0
S02_gonogo_CondA	2021-01-20 21:24:11	95	G	BLINK	1611178045.180021	1611178047.19702	1611178047.7070227	1611178047.9170203	1611178048.111021	0.40399837493896484	0.1940007209777832	1	0
S02_gonogo_CondA	2021-01-20 21:24:11	96	G	NON_BLINK	1611178048.111021	1611178048.1190217	1611178048.5290213	1611178048.7370212	1611178048.9370189	0.40799760818481445	0.1999976634979248	1	0
S02_gonogo_CondA	2021-01-20 21:24:11	97	G	NON_BLINK	1611178048.9380198	1611178048.94602	1611178049.5550196	1611178049.7640195	1611178050.0110185	0.45599889755249023	0.24699902534484863	1	0
S02_gonogo_CondA	2021-01-20 21:24:11	98	G	NON_BLINK	1611178050.0110185	1611178050.0190191	1611178050.5290182	1611178050.7380173	1611178050.8580174	0.32899928092956543	0.12000012397766113	1	0
S02_gonogo_CondA	2021-01-20 21:24:11	99	G	NON_BLINK	1611178050.8580174	1611178050.8670185	1611178051.4792337	1611178051.6890178	1611178051.8770168	0.3977830410003662	0.18799901008605957	1	0
S02_gonogo_CondA	2021-01-20 21:24:11	100	G	BLINK	1611178051.8770168	1611178053.8980165	1611178054.3580155	1611178054.5690155	1611178054.731016	0.3730003833770752	0.16200041770935059	1	0
S02_gonogo_CondA	2021-01-20 21:24:11	101	NG	NON_BLINK	1611178054.731016	1611178054.7380188	1611178055.2480152	1611178055.4590154	1611178056.509013	1.2609977722167969	1.0499975681304932	1	1
S02_gonogo_CondA	2021-01-20 21:24:11	102	G	NON_BLINK	1611178056.509013	1611178056.5200129	1611178057.0800133	1611178057.289012	1611178057.475014	0.395000696182251	0.18600201606750488	1	0
S02_gonogo_CondA	2021-01-20 21:24:11	103	G	NON_BLINK	1611178057.475014	1611178057.4840143	1611178058.0450134	1611178058.2550125	1611178058.483011	0.43799757957458496	0.2279984951019287	1	0
S02_gonogo_CondA	2021-01-20 21:24:11	104	G	NON_BLINK	1611178058.483011	1611178058.4950128	1611178059.0550125	1611178059.2660599	1611178059.3512154	0.2962028980255127	0.08515548706054688	1	0
S02_gonogo_CondA	2021-01-20 21:24:11	105	G	BLINK	1611178059.3512154	1611178061.370215	1611178061.9802144	1611178062.1912146	1611178062.4862137	0.5059993267059326	0.2949991226196289	1	0
S02_gonogo_CondA	2021-01-20 21:24:11	106	G	NON_BLINK	1611178062.4862137	1611178062.4942148	1611178062.9592128	1611178063.168215	1611178063.2582133	0.29900050163269043	0.08999824523925781	1	0
S02_gonogo_CondA	2021-01-20 21:24:11	107	G	NON_BLINK	1611178063.2582133	1611178063.267214	1611178063.7762146	1611178063.9872146	1611178064.221213	0.44499850273132324	0.23399853706359863	1	0
S02_gonogo_CondA	2021-01-20 21:24:11	108	G	NON_BLINK	1611178064.2222133	1611178064.2302127	1611178064.7922137	1611178065.0015652	1611178065.0952117	0.30299806594848633	0.09364652633666992	1	0
S02_gonogo_CondA	2021-01-20 21:24:11	109	NG	NON_BLINK	1611178065.0952117	1611178065.1122122	1611178065.5722113	1611178065.782211	1611178065.9972112	0.4249999523162842	0.21500015258789062	0	0
S02_gonogo_CondA	2021-01-20 21:24:11	110	G	BLINK	1611178066.4082103	1611178068.4262102	1611178069.036209	1611178069.2472086	1611178069.5392103	0.5030012130737305	0.29200172424316406	1	0
S02_gonogo_CondA	2021-01-20 21:24:11	111	G	NON_BLINK	1611178069.5392103	1611178069.5472088	1611178070.0582073	1611178070.267208	1611178070.4082074	0.35000014305114746	0.14099931716918945	1	0
S02_gonogo_CondA	2021-01-20 21:24:11	112	G	NON_BLINK	1611178070.4082074	1611178070.4162092	1611178070.8762088	1611178071.0862067	1611178071.2242076	0.34799885749816895	0.1380009651184082	1	0
S02_gonogo_CondA	2021-01-20 21:24:11	113	NG	NON_BLINK	1611178071.2242076	1611178071.2332082	1611178071.7452068	1611178071.9542067	1611178073.0042078	1.2590010166168213	1.0500011444091797	1	1
S02_gonogo_CondA	2021-01-20 21:24:11	114	G	NON_BLINK	1611178073.0042078	1611178073.0122066	1611178073.572206	1611178073.7832067	1611178074.0032046	0.4309985637664795	0.21999788284301758	1	0
S02_gonogo_CondA	2021-01-20 21:24:11	115	G	BLINK	1611178074.0032046	1611178076.0192049	1611178076.6292045	1611178076.8392026	1611178077.0632012	0.43399667739868164	0.2239985466003418	1	0
S02_gonogo_CondA	2021-01-20 21:24:11	116	NG	NON_BLINK	1611178077.0632012	1611178077.0725422	1611178077.6824105	1611178077.891412	1611178078.9424107	1.260000228881836	1.0509986877441406	1	1
S02_gonogo_CondA	2021-01-20 21:24:11	117	G	NON_BLINK	1611178078.9424107	1611178078.9504113	1611178079.5184093	1611178079.728411	1611178079.9474092	0.4289999008178711	0.21899819374084473	1	0
S02_gonogo_CondA	2021-01-20 21:24:11	118	NG	NON_BLINK	1611178079.9474092	1611178079.9554114	1611178080.3654108	1611178080.5764098	1611178081.627408	1.2619972229003906	1.0509982109069824	1	1
S02_gonogo_CondA	2021-01-20 21:24:11	119	G	NON_BLINK	1611178081.627408	1611178081.6354086	1611178082.0964074	1611178082.3074079	1611178082.5064168	0.41000938415527344	0.19900894165039062	1	0
S02_gonogo_CondA	2021-01-20 21:24:11	120	G	BLINK	1611178082.5064168	1611178084.5234158	1611178085.033414	1611178085.2426474	1611178085.5674124	0.5339984893798828	0.3247649669647217	1	0
S02_gonogo_CondA	2021-01-20 21:24:11	121	G	NON_BLINK	1611178085.5674124	1611178085.5764139	1611178086.0354135	1611178086.244412	1611178086.5094128	0.4739992618560791	0.2650008201599121	1	0
S02_gonogo_CondA	2021-01-20 21:24:11	122	G	NON_BLINK	1611178086.5094128	1611178086.5184126	1611178086.9794126	1611178087.1914122	1611178087.3874125	0.40799999237060547	0.196000337600708	1	0
S02_gonogo_CondA	2021-01-20 21:24:11	123	NG	NON_BLINK	1611178087.3874125	1611178087.395411	1611178087.9044108	1611178088.1134105	1611178089.1644096	1.2599987983703613	1.0509991645812988	1	1
S02_gonogo_CondA	2021-01-20 21:24:11	124	G	NON_BLINK	1611178089.1644096	1611178089.172411	1611178089.5834093	1611178089.7934103	1611178089.9854105	0.40200114250183105	0.192000150680542	1	0
S02_gonogo_CondA	2021-01-20 21:24:11	125	G	BLINK	1611178089.986411	1611178092.0084083	1611178092.5694067	1611178092.780408	1611178092.9754066	0.40599989891052246	0.19499874114990234	1	0
S02_gonogo_CondA	2021-01-20 21:24:11	126	G	NON_BLINK	1611178092.9754066	1611178092.9834082	1611178093.493407	1611178093.7034082	1611178093.9284065	0.4349994659423828	0.22499823570251465	1	0
S02_gonogo_CondA	2021-01-20 21:24:11	127	G	NON_BLINK	1611178093.9284065	1611178093.9364073	1611178094.3984065	1611178094.6074061	1611178094.7654054	0.36699891090393066	0.15799927711486816	1	0
S02_gonogo_CondA	2021-01-20 21:24:11	128	G	NON_BLINK	1611178094.7664058	1611178094.774406	1611178095.1854062	1611178095.408406	1611178095.5484061	0.36299991607666016	0.1400001049041748	1	0
S02_gonogo_CondA	2021-01-20 21:24:11	129	G	NON_BLINK	1611178095.5484061	1611178095.556406	1611178096.0664055	1611178096.2754054	1611178096.3864043	0.31999874114990234	0.11099886894226074	1	0
S02_gonogo_CondA	2021-01-20 21:24:11	130	G	BLINK	1611178096.3864043	1611178098.407403	1611178098.816401	1611178099.027401	1611178099.276402	0.46000099182128906	0.24900102615356445	1	0
S02_gonogo_CondA	2021-01-20 21:24:11	131	G	NON_BLINK	1611178099.2774029	1611178099.2854023	1611178099.7024028	1611178099.912401	1611178100.003401	0.3009982109069824	0.09100008010864258	1	0
S02_gonogo_CondA	2021-01-20 21:24:11	132	G	NON_BLINK	1611178100.003401	1611178100.0124018	1611178100.5264006	1611178100.7354033	1611178100.9754	0.44899940490722656	0.23999667167663574	1	0
S02_gonogo_CondA	2021-01-20 21:24:11	133	NG	NON_BLINK	1611178100.9764023	1611178100.9844012	1611178101.4464014	1611178101.6564004	1611178102.7073987	1.2609972953796387	1.0509982109069824	1	1
S02_gonogo_CondA	2021-01-20 21:24:11	134	G	NON_BLINK	1611178102.7073987	1611178102.7153997	1611178103.3254	1611178103.5363986	1611178103.7443979	0.41899776458740234	0.20799922943115234	1	0
S02_gonogo_CondA	2021-01-20 21:24:11	135	NG	BLINK	1611178103.745399	1611178105.7643962	1611178106.2253985	1611178106.4353955	1611178107.4853947	1.2599961757659912	1.0499992370605469	1	1
S02_gonogo_CondA	2021-01-20 21:24:11	136	G	NON_BLINK	1611178107.4853947	1611178107.494397	1611178107.9043958	1611178108.1133957	1611178108.2953951	0.39099931716918945	0.18199944496154785	1	0
S02_gonogo_CondA	2021-01-20 21:24:11	137	G	NON_BLINK	1611178108.2953951	1611178108.3033953	1611178108.9133928	1611178109.1213942	1611178109.2583935	0.3450007438659668	0.13699936866760254	1	0
S02_gonogo_CondA	2021-01-20 21:24:11	138	G	NON_BLINK	1611178109.2583935	1611178109.2663944	1611178109.776394	1611178109.986393	1611178110.0953927	0.3189988136291504	0.10899972915649414	1	0
S02_gonogo_CondA	2021-01-20 21:24:11	139	G	NON_BLINK	1611178110.0953927	1611178110.1033928	1611178110.7123938	1611178110.923392	1611178111.0283918	0.3159980773925781	0.10499978065490723	1	0
S02_gonogo_CondA	2021-01-20 21:24:11	140	G	BLINK	1611178111.0283918	1611178113.047391	1611178113.4583912	1611178113.6683915	1611178113.902389	0.443997859954834	0.23399758338928223	1	0
S02_gonogo_CondA	2021-01-20 21:24:11	141	G	NON_BLINK	1611178113.902389	1611178113.9153895	1611178114.5253892	1611178114.7353904	1611178114.8803904	0.35500121116638184	0.14499998092651367	1	0
S02_gonogo_CondA	2021-01-20 21:24:11	142	G	NON_BLINK	1611178114.8813903	1611178114.8943913	1611178115.4563894	1611178115.6653893	1611178115.8713894	0.41499996185302734	0.20600008964538574	1	0
S02_gonogo_CondA	2021-01-20 21:24:11	143	NG	NON_BLINK	1611178115.8713894	1611178115.8813915	1611178116.490388	1611178116.7003899	1611178117.7513876	1.2609996795654297	1.0509977340698242	1	1
S02_gonogo_CondA	2021-01-20 21:24:11	144	G	NON_BLINK	1611178117.7513876	1611178117.7603867	1611178118.3233864	1611178118.532386	1611178118.7233856	0.39999914169311523	0.19099950790405273	1	0
S02_gonogo_CondA	2021-01-20 21:24:11	145	NG	BLINK	1611178118.7233856	1611178120.741386	1611178121.3033848	1611178121.514386	1611178121.8583837	0.5549988746643066	0.3439977169036865	0	0
S02_gonogo_CondA	2021-01-20 21:24:11	146	G	NON_BLINK	1611178122.270383	1611178122.2793846	1611178122.840384	1611178123.0503836	1611178123.4183838	0.5779998302459717	0.3680002689361572	1	0
S02_gonogo_CondA	2021-01-20 21:24:11	147	G	NON_BLINK	1611178123.4183838	1611178123.433382	1611178123.9943824	1611178124.203384	1611178124.6273835	0.6330010890960693	0.423999547958374	1	0
S02_gonogo_CondA	2021-01-20 21:24:11	148	G	NON_BLINK	1611178124.6273835	1611178124.636382	1611178125.197382	1611178125.4083822	1611178125.5953813	0.39799928665161133	0.18699908256530762	1	0
S02_gonogo_CondA	2021-01-20 21:24:11	149	G	NON_BLINK	1611178125.5953813	1611178125.605382	1611178126.014382	1611178126.2233813	1611178126.4683816	0.45399975776672363	0.24500036239624023	1	0
S02_gonogo_CondA	2021-01-20 21:24:11	150	G	BLINK	1611178126.4683816	1611178128.4933789	1611178129.054379	1611178129.2633786	1611178129.9143786	0.8599996566772461	0.6510000228881836	1	0
S02_gonogo_CondA	2021-01-20 21:24:11	151	G	NON_BLINK	1611178129.9143786	1611178129.922378	1611178130.433377	1611178130.6453774	1611178130.903377	0.4700000286102295	0.2579996585845947	1	0
S02_gonogo_CondA	2021-01-20 21:24:11	152	G	NON_BLINK	1611178130.903377	1611178130.9123776	1611178131.322376	1611178131.5333762	1611178131.7743754	0.4519994258880615	0.2409992218017578	1	0
S02_gonogo_CondA	2021-01-20 21:24:11	153	G	NON_BLINK	1611178131.7753756	1611178131.7833774	1611178132.2943757	1611178132.5033758	1611178132.7233784	0.4290027618408203	0.2200026512145996	1	0
S02_gonogo_CondA	2021-01-20 21:24:11	154	G	NON_BLINK	1611178132.7233784	1611178132.7313764	1611178133.1923745	1611178133.4033751	1611178133.6813738	0.4889993667602539	0.277998685836792	1	0
S02_gonogo_CondA	2021-01-20 21:24:11	155	G	BLINK	1611178133.6813738	1611178135.7003734	1611178136.1593719	1611178136.370374	1611178136.7253714	0.5659995079040527	0.3549973964691162	1	0
S02_gonogo_CondA	2021-01-20 21:24:11	156	G	NON_BLINK	1611178136.7253714	1611178136.7353737	1611178137.1983724	1611178137.4093719	1611178137.6783717	0.479999303817749	0.2689998149871826	1	0
S02_gonogo_CondA	2021-01-20 21:24:11	157	NG	NON_BLINK	1611178137.6793728	1611178137.6883721	1611178138.1993954	1611178138.4113705	1611178139.4613695	1.2619740962982178	1.0499989986419678	1	1
S02_gonogo_CondA	2021-01-20 21:24:11	158	G	NON_BLINK	1611178139.4613695	1611178139.4733694	1611178139.9353707	1611178140.147368	1611178140.368369	0.4329984188079834	0.22100114822387695	1	0
S02_gonogo_CondA	2021-01-20 21:24:11	159	G	NON_BLINK	1611178140.368369	1611178140.3783693	1611178140.9903693	1611178141.1993694	1611178141.406368	0.4159986972808838	0.20699858665466309	1	0
S02_gonogo_CondA	2021-01-20 21:24:11	160	G	BLINK	1611178141.406368	1611178143.4273672	1611178143.8873975	1611178144.1103673	1611178144.3863666	0.49896907806396484	0.2759993076324463	1	0
S02_gonogo_CondA	2021-01-20 21:24:11	161	G	NON_BLINK	1611178144.3863666	1611178144.3943667	1611178144.955366	1611178145.1683652	1611178145.3693635	0.4139976501464844	0.20099830627441406	1	0
S02_gonogo_CondA	2021-01-20 21:24:11	162	NG	NON_BLINK	1611178145.3693635	1611178145.3773656	1611178145.8383646	1611178146.048366	1611178147.0993636	1.2609989643096924	1.0509974956512451	1	1
S02_gonogo_CondA	2021-01-20 21:24:11	163	NG	NON_BLINK	1611178147.0993636	1611178147.1083636	1611178147.516364	1611178147.7253635	1611178148.775361	1.2589969635009766	1.0499975681304932	1	1
S02_gonogo_CondA	2021-01-20 21:24:11	164	G	NON_BLINK	1611178148.775361	1611178148.785362	1611178149.345362	1611178149.5563617	1611178149.7373612	0.3919992446899414	0.1809995174407959	1	0
S02_gonogo_CondA	2021-01-20 21:24:11	165	NG	BLINK	1611178149.7373612	1611178151.7573614	1611178152.26936	1611178152.4783597	1611178153.528358	1.258997917175293	1.0499982833862305	1	1
S02_gonogo_CondA	2021-01-20 21:24:11	166	NG	NON_BLINK	1611178153.528358	1611178153.5373595	1611178154.1473577	1611178154.35636	1611178155.4063566	1.2589988708496094	1.0499966144561768	1	1
S02_gonogo_CondA	2021-01-20 21:24:11	167	G	NON_BLINK	1611178155.4073567	1611178155.4143577	1611178156.0253563	1611178156.2353573	1611178156.4403572	0.41500091552734375	0.2049999237060547	1	0
S02_gonogo_CondA	2021-01-20 21:24:11	168	G	NON_BLINK	1611178156.4403572	1611178156.4503555	1611178156.9113557	1611178157.1213555	1611178157.281355	0.3699991703033447	0.15999937057495117	1	0
S02_gonogo_CondA	2021-01-20 21:24:11	169	G	NON_BLINK	1611178157.2823555	1611178157.2903564	1611178157.900355	1611178158.111355	1611178158.2903547	0.3899996280670166	0.178999662399292	1	0
S02_gonogo_CondA	2021-01-20 21:24:11	170	G	BLINK	1611178158.2903547	1611178160.3103547	1611178160.7203524	1611178160.9303534	1611178161.1193526	0.3990001678466797	0.18899917602539062	1	0
S02_gonogo_CondA	2021-01-20 21:24:11	171	G	NON_BLINK	1611178161.1193526	1611178161.129352	1611178161.6903524	1611178161.9003513	1611178162.0823514	0.3919990062713623	0.18200016021728516	1	0
S02_gonogo_CondA	2021-01-20 21:24:11	172	G	NON_BLINK	1611178162.0823514	1611178162.090351	1611178162.6503515	1611178162.8603504	1611178163.0103502	0.3599987030029297	0.14999985694885254	1	0
S02_gonogo_CondA	2021-01-20 21:24:11	173	G	NON_BLINK	1611178163.0103502	1611178163.018351	1611178163.6313493	1611178163.8413508	1611178163.968352	0.3370027542114258	0.12700128555297852	1	0
S02_gonogo_CondA	2021-01-20 21:24:11	174	NG	NON_BLINK	1611178163.968352	1611178163.9773521	1611178164.5403504	1611178164.7503505	1611178165.8003478	1.2599973678588867	1.049997329711914	1	1
S02_gonogo_CondA	2021-01-20 21:24:11	175	G	BLINK	1611178165.8013494	1611178167.8203475	1611178168.3813474	1611178168.5983462	1611178168.768346	0.38699865341186523	0.1699998378753662	1	0
S02_gonogo_CondA	2021-01-20 21:24:11	176	G	NON_BLINK	1611178168.7693477	1611178168.777347	1611178169.2393467	1611178169.452348	1611178169.6563451	0.41699838638305664	0.20399713516235352	1	0
S02_gonogo_CondA	2021-01-20 21:24:11	177	G	NON_BLINK	1611178169.6563451	1611178169.6653452	1611178170.2753448	1611178170.4863443	1611178170.6253471	0.3500022888183594	0.13900279998779297	1	0
S02_gonogo_CondA	2021-01-20 21:24:11	178	G	NON_BLINK	1611178170.6253471	1611178170.6363475	1611178171.1983452	1611178171.4103487	1611178171.6023438	0.40399861335754395	0.19199514389038086	1	0
S02_gonogo_CondA	2021-01-20 21:24:11	179	G	NON_BLINK	1611178171.603344	1611178171.611344	1611178172.0723438	1611178172.2833438	1611178172.4473426	0.3749988079071045	0.16399884223937988	1	0
S02_gonogo_CondA	2021-01-20 21:24:11	180	G	BLINK	1611178172.4473426	1611178174.4673414	1611178175.0783422	1611178175.289342	1611178175.4633417	0.38499951362609863	0.17399978637695312	1	0
S02_gonogo_CondA	2021-01-20 21:24:11	181	G	NON_BLINK	1611178175.4633417	1611178175.4723396	1611178176.033341	1611178176.243342	1611178176.3133411	0.2800002098083496	0.06999921798706055	1	0
S02_gonogo_CondA	2021-01-20 21:24:11	182	G	NON_BLINK	1611178176.3133411	1611178176.3223398	1611178176.833341	1611178177.0433395	1611178177.1653392	0.331998348236084	0.12199974060058594	1	0
S02_gonogo_CondA	2021-01-20 21:24:11	183	NG	NON_BLINK	1611178177.1663394	1611178177.174342	1611178177.58734	1611178177.79734	1611178177.9333396	0.34599947929382324	0.1359996795654297	0	0
S02_gonogo_CondA	2021-01-20 21:24:11	184	G	NON_BLINK	1611178178.343338	1611178178.351339	1611178178.8633378	1611178179.0733383	1611178179.4333386	0.5700008869171143	0.3600003719329834	1	0
S02_gonogo_CondA	2021-01-20 21:24:11	185	G	BLINK	1611178179.4333386	1611178181.4523377	1611178181.863336	1611178182.0723367	1611178182.2623353	0.3989992141723633	0.18999862670898438	1	0
S02_gonogo_CondA	2021-01-20 21:24:11	186	G	NON_BLINK	1611178182.2623353	1611178182.2713351	1611178182.7813358	1611178182.9923372	1611178183.0593348	0.2779989242553711	0.06699752807617188	1	0
S02_gonogo_CondA	2021-01-20 21:24:11	187	G	NON_BLINK	1611178183.0593348	1611178183.0683355	1611178183.678335	1611178183.8893347	1611178184.0133357	0.33500075340270996	0.12400102615356445	1	0
S02_gonogo_CondA	2021-01-20 21:24:11	188	G	NON_BLINK	1611178184.0133357	1611178184.0233357	1611178184.5843344	1611178184.7943318	1611178184.9153328	0.33099842071533203	0.12100100517272949	1	0
S02_gonogo_CondA	2021-01-20 21:24:11	189	G	NON_BLINK	1611178184.9153328	1611178184.9233363	1611178185.534334	1611178185.7473319	1611178185.8933396	0.3590056896209717	0.14600777626037598	1	0
S02_gonogo_CondA	2021-01-20 21:24:11	190	G	BLINK	1611178185.89434	1611178187.9133382	1611178188.3273377	1611178188.5373378	1611178188.6773386	0.35000085830688477	0.1400008201599121	1	0
S02_gonogo_CondA	2021-01-20 21:24:11	191	G	NON_BLINK	1611178188.6773386	1611178188.6863387	1611178189.1953385	1611178189.4073381	1611178189.4703395	0.27500104904174805	0.06300139427185059	1	0
S02_gonogo_CondA	2021-01-20 21:24:11	192	G	NON_BLINK	1611178189.4703395	1611178189.4793396	1611178189.9423375	1611178190.151338	1611178190.2723372	0.3299996852874756	0.12099909782409668	1	0
S02_gonogo_CondA	2021-01-20 21:24:11	193	G	NON_BLINK	1611178190.2723372	1611178190.2813377	1611178190.743337	1611178190.9543371	1611178191.0553367	0.3119997978210449	0.10099959373474121	1	0
S02_gonogo_CondA	2021-01-20 21:24:11	194	G	NON_BLINK	1611178191.0553367	1611178191.0633676	1611178191.4733365	1611178191.6853354	1611178191.787335	0.3139984607696533	0.10199952125549316	1	0
S02_gonogo_CondA	2021-01-20 21:24:11	195	G	BLINK	1611178191.787335	1611178193.8083355	1611178194.317335	1611178194.5273345	1611178194.6813328	0.3639979362487793	0.15399837493896484	1	0
S02_gonogo_CondA	2021-01-20 21:24:11	196	NG	NON_BLINK	1611178194.6813328	1611178194.6903353	1611178195.1503336	1611178195.3593316	1611178195.4543335	0.3039999008178711	0.0950019359588623	0	0
S02_gonogo_CondA	2021-01-20 21:24:11	197	NG	NON_BLINK	1611178195.8663328	1611178195.878333	1611178196.488354	1611178196.6983328	1611178197.7493303	1.2609763145446777	1.0509974956512451	1	1
S02_gonogo_CondA	2021-01-20 21:24:11	198	G	NON_BLINK	1611178197.7493303	1611178197.7583303	1611178198.2693317	1611178198.480331	1611178198.6943302	0.42499852180480957	0.21399927139282227	1	0
S02_gonogo_CondA	2021-01-20 21:24:11	199	G	NON_BLINK	1611178198.6943302	1611178198.7063308	1611178199.2173312	1611178199.427329	1611178199.6273296	0.40999841690063477	0.20000052452087402	1	0
S02_gonogo_CondA	2021-01-20 21:24:11	200	G	BLINK	1611178199.6273296	1611178201.6463282	1611178202.1063268	1611178202.317329	1611178202.5063272	0.40000033378601074	0.18899822235107422	1	0

PARTICIPANT	SESSION_TIMESTAMP	TRIAL_N	CURRENT_TRIAL	TRIAL_TYPE	TRIAL_START_TIME	FIXATION_ONSET_TIME	STIM_ONSET_TIME	MASK_ONSET_TIME	RESPONSE_GIVEN_TIME	RT_REL_STIM_ONSET	RT_REL_MASK_ONSET	ACCURACY	TIMEOUT
s3-gonogo-condb	2021-02-03 20:44:05	1	G	NON_BLINK	1612385063.5758705	1612385063.5819123	1612385063.9942825	1612385064.2025943	1612385064.7840555	0.7897729873657227	0.5814611911773682	1	0
s3-gonogo-condb	2021-02-03 20:44:05	2	G	NON_BLINK	1612385064.7840555	1612385064.7900918	1612385065.199942	1612385065.4074605	1612385065.9355588	0.7356166839599609	0.5280983448028564	1	0
s3-gonogo-condb	2021-02-03 20:44:05	3	G	NON_BLINK	1612385065.9355588	1612385065.9415834	1612385066.5010145	1612385066.7085154	1612385067.0565295	0.5555150508880615	0.34801411628723145	1	0
s3-gonogo-condb	2021-02-03 20:44:05	4	G	NON_BLINK	1612385067.0565295	1612385067.0615559	1612385067.619046	1612385067.8295178	1612385068.1057656	0.48671960830688477	0.2762477397918701	1	0
s3-gonogo-condb	2021-02-03 20:44:05	5	G	BLINK	1612385068.1057656	1612385070.1222603	1612385070.5834742	1612385070.7904189	1612385071.2276244	0.6441502571105957	0.43720555305480957	1	0
s3-gonogo-condb	2021-02-03 20:44:05	6	NG	NON_BLINK	1612385071.2276244	1612385071.2346013	1612385071.6423602	1612385071.852845	1612385072.9030807	1.2607204914093018	1.0502357482910156	1	1
s3-gonogo-condb	2021-02-03 20:44:05	7	G	NON_BLINK	1612385072.9030807	1612385072.9111414	1612385073.3687456	1612385073.5821326	1612385074.1755455	0.8067998886108398	0.5934128761291504	1	0
s3-gonogo-condb	2021-02-03 20:44:05	8	G	NON_BLINK	1612385074.1755455	1612385074.183527	1612385074.692822	1612385074.9077237	1612385075.468415	0.7755930423736572	0.5606913566589355	1	0
s3-gonogo-condb	2021-02-03 20:44:05	9	G	NON_BLINK	1612385075.468415	1612385075.4764357	1612385075.9830918	1612385076.1894863	1612385076.7620878	0.7789959907531738	0.5726015567779541	1	0
s3-gonogo-condb	2021-02-03 20:44:05	10	G	BLINK	1612385076.7620878	1612385078.7762294	1612385079.1822138	1612385079.391583	1612385079.9007604	0.7185466289520264	0.5091774463653564	1	0
s3-gonogo-condb	2021-02-03 20:44:05	11	G	NON_BLINK	1612385079.9007604	1612385079.9057958	1612385080.464842	1612385080.6792762	1612385081.1774368	0.712594747543335	0.49816060066223145	1	0
s3-gonogo-condb	2021-02-03 20:44:05	12	G	NON_BLINK	1612385081.1774368	1612385081.183524	1612385081.5892217	1612385081.7981894	1612385082.2779036	0.6886818408966064	0.47971415519714355	1	0
s3-gonogo-condb	2021-02-03 20:44:05	13	G	NON_BLINK	1612385082.2789207	1612385082.2889152	1612385082.8513732	1612385083.0578525	1612385083.5136003	0.6622271537780762	0.4557478427886963	1	0
s3-gonogo-condb	2021-02-03 20:44:05	14	G	NON_BLINK	1612385083.5136003	1612385083.521623	1612385083.9284902	1612385084.134941	1612385084.8082595	0.8797693252563477	0.6733183860778809	1	0
s3-gonogo-condb	2021-02-03 20:44:05	15	G	BLINK	1612385084.8082595	1612385086.8301346	1612385087.3398693	1612385087.548266	1612385087.9352324	0.5953631401062012	0.3869664669036865	1	0
s3-gonogo-condb	2021-02-03 20:44:05	16	G	NON_BLINK	1612385087.9352324	1612385087.9452066	1612385088.5067337	1612385088.7148242	1612385089.1629517	0.6562180519104004	0.44812750816345215	1	0
s3-gonogo-condb	2021-02-03 20:44:05	17	G	NON_BLINK	1612385089.1629517	1612385089.1726305	1612385089.7802706	1612385089.9854777	1612385090.410311	0.6300404071807861	0.4248332977294922	1	0
s3-gonogo-condb	2021-02-03 20:44:05	18	G	NON_BLINK	1612385090.410311	1612385090.4212747	1612385090.8840363	1612385091.0904834	1612385091.594326	0.710289716720581	0.5038425922393799	1	0
s3-gonogo-condb	2021-02-03 20:44:05	19	G	NON_BLINK	1612385091.5953245	1612385091.600363	1612385092.0053449	1612385092.2187264	1612385092.7782326	0.7728877067565918	0.5595061779022217	1	0
s3-gonogo-condb	2021-02-03 20:44:05	20	G	BLINK	1612385092.7782326	1612385094.801377	1612385095.3143206	1612385095.5212655	1612385096.027911	0.7135903835296631	0.5066454410552979	1	0
s3-gonogo-condb	2021-02-03 20:44:05	21	G	NON_BLINK	1612385096.027911	1612385096.0369415	1612385096.445406	1612385096.6538885	1612385097.1191525	0.6737465858459473	0.46526408195495605	1	0
s3-gonogo-condb	2021-02-03 20:44:05	22	G	NON_BLINK	1612385097.1201496	1612385097.1331127	1612385097.649731	1612385097.856191	1612385098.1978688	0.548137903213501	0.3416779041290283	1	0
s3-gonogo-condb	2021-02-03 20:44:05	23	NG	NON_BLINK	1612385098.1978688	1612385098.2079122	1612385098.623415	1612385098.830427	1612385099.8806396	1.2572245597839355	1.0502126216888428	1	1
s3-gonogo-condb	2021-02-03 20:44:05	24	G	NON_BLINK	1612385099.8806396	1612385099.8875911	1612385100.4970014	1612385100.703413	1612385101.2270072	0.7300057411193848	0.5235941410064697	1	0
s3-gonogo-condb	2021-02-03 20:44:05	25	G	BLINK	1612385101.2270072	1612385103.249441	1612385103.7132576	1612385103.918653	1612385104.3056157	0.5923581123352051	0.3869626522064209	1	0
s3-gonogo-condb	2021-02-03 20:44:05	26	G	NON_BLINK	1612385104.3056157	1612385104.3106022	1612385104.818985	1612385105.0245068	1612385105.5649881	0.7460031509399414	0.5404813289642334	1	0
s3-gonogo-condb	2021-02-03 20:44:05	27	G	NON_BLINK	1612385105.5659857	1612385105.5700457	1612385106.1758714	1612385106.3843207	1612385106.825139	0.6492676734924316	0.44081830978393555	1	0
s3-gonogo-condb	2021-02-03 20:44:05	28	G	NON_BLINK	1612385106.825139	1612385106.8302028	1612385107.2375555	1612385107.4450626	1612385107.9841394	0.7465839385986328	0.5390768051147461	1	0
s3-gonogo-condb	2021-02-03 20:44:05	29	G	NON_BLINK	1612385107.9841394	1612385107.9890566	1612385108.3959663	1612385108.6024349	1612385109.1020818	0.7061154842376709	0.4996469020843506	1	0
s3-gonogo-condb	2021-02-03 20:44:05	30	NG	BLINK	1612385109.1020818	1612385111.119456	1612385111.7267606	1612385111.934209	1612385112.9843125	1.257551908493042	1.0501034259796143	1	1
s3-gonogo-condb	2021-02-03 20:44:05	31	G	NON_BLINK	1612385112.9843125	1612385112.9893868	1612385113.445585	1612385113.6520348	1612385114.0634916	0.6179065704345703	0.411456823348999	1	0
s3-gonogo-condb	2021-02-03 20:44:05	32	G	NON_BLINK	1612385114.0634916	1612385114.0684261	1612385114.5746818	1612385114.780863	1612385115.1618583	0.5871765613555908	0.3809952735900879	1	0
s3-gonogo-condb	2021-02-03 20:44:05	33	G	NON_BLINK	1612385115.1618583	1612385115.1668446	1612385115.7243528	1612385115.9303558	1612385116.3124564	0.5881035327911377	0.38210058212280273	1	0
s3-gonogo-condb	2021-02-03 20:44:05	34	G	NON_BLINK	1612385116.3124564	1612385116.3174896	1612385116.7239444	1612385116.9303348	1612385117.4628909	0.7389464378356934	0.5325560569763184	1	0
s3-gonogo-condb	2021-02-03 20:44:05	35	NG	BLINK	1612385117.4628909	1612385119.4750826	1612385120.0339277	1612385120.2443686	1612385121.2946205	1.260692834854126	1.0502519607543945	1	1
s3-gonogo-condb	2021-02-03 20:44:05	36	G	NON_BLINK	1612385121.2946205	1612385121.2996569	1612385121.7554152	1612385121.962362	1612385122.461949	0.7065339088439941	0.4995870590209961	1	0
s3-gonogo-condb	2021-02-03 20:44:05	37	NG	NON_BLINK	1612385122.461949	1612385122.466939	1612385122.8745303	1612385123.079957	1612385124.130129	1.255598783493042	1.0501720905303955	1	1
s3-gonogo-condb	2021-02-03 20:44:05	38	G	NON_BLINK	1612385124.130129	1612385124.138106	1612385124.54509	1612385124.7505996	1612385125.2133346	0.6682446002960205	0.4627349376678467	1	0
s3-gonogo-condb	2021-02-03 20:44:05	39	G	NON_BLINK	1612385125.2133346	1612385125.2192783	1612385125.7249253	1612385125.934366	1612385126.5179973	0.793071985244751	0.5836312770843506	1	0
s3-gonogo-condb	2021-02-03 20:44:05	40	G	BLINK	1612385126.5179973	1612385128.5299385	1612385129.0880344	1612385129.2934723	1612385129.7536826	0.6656482219696045	0.46021032333374023	1	0
s3-gonogo-condb	2021-02-03 20:44:05	41	NG	NON_BLINK	1612385129.7536826	1612385129.7596643	1612385130.2169547	1612385130.4231415	1612385131.4726417	1.2556869983673096	1.0495002269744873	1	1
s3-gonogo-condb	2021-02-03 20:44:05	42	G	NON_BLINK	1612385131.4726417	1612385131.4766285	1612385132.0341208	1612385132.2406616	1612385132.7022536	0.6681327819824219	0.4615919589996338	1	0
s3-gonogo-condb	2021-02-03 20:44:05	43	G	NON_BLINK	1612385132.7022536	1612385132.707239	1612385133.1630628	1612385133.3695135	1612385133.7918491	0.6287863254547119	0.4223356246948242	1	0
s3-gonogo-condb	2021-02-03 20:44:05	44	G	NON_BLINK	1612385133.7918491	1612385133.7998278	1612385134.2057977	1612385134.4122167	1612385134.8570218	0.6512241363525391	0.4448051452636719	1	0
s3-gonogo-condb	2021-02-03 20:44:05	45	G	BLINK	1612385134.8570218	1612385136.875397	1612385137.3318067	1612385137.5387218	1612385138.0234253	0.6916186809539795	0.48470354080200195	1	0
s3-gonogo-condb	2021-02-03 20:44:05	46	G	NON_BLINK	1612385138.0234253	1612385138.0294116	1612385138.5345724	1612385138.7401133	1612385139.1783679	0.6437954902648926	0.43825459480285645	1	0
s3-gonogo-condb	2021-02-03 20:44:05	47	NG	NON_BLINK	1612385139.1783679	1612385139.1843958	1612385139.643125	1612385139.8486814	1612385140.898768	1.2556428909301758	1.050086498260498	1	1
s3-gonogo-condb	2021-02-03 20:44:05	48	G	NON_BLINK	1612385140.898768	1612385140.9037545	1612385141.4602668	1612385141.668258	1612385142.127547	0.6672801971435547	0.4592890739440918	1	0
s3-gonogo-condb	2021-02-03 20:44:05	49	G	NON_BLINK	1612385142.127547	1612385142.1355278	1612385142.7419622	1612385142.9503727	1612385143.3977053	0.6557431221008301	0.44733262062072754	1	0
s3-gonogo-condb	2021-02-03 20:44:05	50	G	BLINK	1612385143.3977053	1612385145.4100084	1612385145.9664812	1612385146.1734376	1612385146.704676	0.7381947040557861	0.531238317489624	1	0
s3-gonogo-condb	2021-02-03 20:44:05	51	NG	NON_BLINK	1612385146.704676	1612385146.708708	1612385147.2693062	1612385147.4748237	1612385148.524941	1.2556347846984863	1.0501172542572021	1	1
s3-gonogo-condb	2021-02-03 20:44:05	52	G	NON_BLINK	1612385148.524941	1612385148.5299299	1612385148.9863071	1612385149.1927543	1612385149.777191	0.7908837795257568	0.5844366550445557	1	0
s3-gonogo-condb	2021-02-03 20:44:05	53	G	NON_BLINK	1612385149.778234	1612385149.7831738	1612385150.34101	1612385150.5474727	1612385151.1767502	0.8357400894165039	0.6292774677276611	1	0
s3-gonogo-condb	2021-02-03 20:44:05	54	G	NON_BLINK	1612385151.1767502	1612385151.1817737	1612385151.6889687	1612385151.895898	1612385152.454949	0.7659802436828613	0.5590507984161377	1	0
s3-gonogo-condb	2021-02-03 20:44:05	55	G	BLINK	1612385152.454949	1612385154.4692316	1612385154.925331	1612385155.1322806	1612385155.5431366	0.6178054809570312	0.4108560085296631	1	0
s3-gonogo-condb	2021-02-03 20:44:05	56	G	NON_BLINK	1612385155.5431366	1612385155.5491793	1612385156.0543377	1612385156.2612972	1612385156.8246558	0.7703180313110352	0.5633585453033447	1	0
s3-gonogo-condb	2021-02-03 20:44:05	57	G	NON_BLINK	1612385156.8256538	1612385156.830712	1612385157.2864888	1612385157.4929152	1612385157.9052732	0.6187844276428223	0.41235804557800293	1	0
s3-gonogo-condb	2021-02-03 20:44:05	58	G	NON_BLINK	1612385157.9052732	1612385157.9103076	1612385158.4667919	1612385158.673297	1612385159.2905874	0.8237955570220947	0.6172904968261719	1	0
s3-gonogo-condb	2021-02-03 20:44:05	59	G	NON_BLINK	1612385159.2905874	1612385159.294616	1612385159.902223	1612385160.1082213	1612385160.6203177	0.7180945873260498	0.5120964050292969	1	0
s3-gonogo-condb	2021-02-03 20:44:05	60	G	BLINK	1612385160.6203177	1612385162.6342459	1612385163.1929228	1612385163.400889	1612385163.875558	0.6826350688934326	0.4746689796447754	1	0
s3-gonogo-condb	2021-02-03 20:44:05	61	G	NON_BLINK	1612385163.875558	1612385163.8806002	1612385164.286457	1612385164.492904	1612385164.996576	0.7101190090179443	0.5036721229553223	1	0
s3-gonogo-condb	2021-02-03 20:44:05	62	NG	NON_BLINK	1612385164.996576	1612385165.0016081	1612385165.4095101	1612385165.614978	1612385166.6649058	1.2553956508636475	1.0499277114868164	1	1
s3-gonogo-condb	2021-02-03 20:44:05	63	G	NON_BLINK	1612385166.6649058	1612385166.6698918	1612385167.1756096	1612385167.3820124	1612385167.7939644	0.6183547973632812	0.41195201873779297	1	0
s3-gonogo-condb	2021-02-03 20:44:05	64	NG	NON_BLINK	1612385167.7939644	1612385167.7989535	1612385168.3068357	1612385168.5127919	1612385169.5629632	1.2561275959014893	1.0501713752746582	1	1
s3-gonogo-condb	2021-02-03 20:44:05	65	NG	BLINK	1612385169.5629632	1612385171.577401	1612385172.1358438	1612385172.3413434	1612385173.3915796	1.2557358741760254	1.0502362251281738	1	1
s3-gonogo-condb	2021-02-03 20:44:05	66	G	NON_BLINK	1612385173.3915796	1612385173.3985198	1612385174.0054102	1612385174.2108648	1612385174.6943648	0.6889545917510986	0.48350000381469727	1	0
s3-gonogo-condb	2021-02-03 20:44:05	67	NG	NON_BLINK	1612385174.6943648	1612385174.6994126	1612385175.2598522	1612385175.4662993	1612385176.5160923	1.2562401294708252	1.049793004989624	1	1
s3-gonogo-condb	2021-02-03 20:44:05	68	G	NON_BLINK	1612385176.5160923	1612385176.521123	1612385177.0786452	1612385177.284098	1612385177.8651958	0.7865505218505859	0.5810978412628174	1	0
s3-gonogo-condb	2021-02-03 20:44:05	69	G	NON_BLINK	1612385177.8651958	1612385177.870252	1612385178.327004	1612385178.5324125	1612385179.1509287	0.8239247798919678	0.618516206741333	1	0
s3-gonogo-condb	2021-02-03 20:44:05	70	G	BLINK	1612385179.1509287	1612385181.165117	1612385181.5730257	1612385181.7784755	1612385182.3190732	0.7460474967956543	0.540597677230835	1	0
s3-gonogo-condb	2021-02-03 20:44:05	71	G	NON_BLINK	1612385182.3200257	1612385182.3240156	1612385182.8820548	1612385183.0876374	1612385183.6465914	0.7645366191864014	0.5589540004730225	1	0
s3-gonogo-condb	2021-02-03 20:44:05	72	G	NON_BLINK	1612385183.6465914	1612385183.6516206	1612385184.209085	1612385184.414577	1612385184.922879	0.7137939929962158	0.5083019733428955	1	0
s3-gonogo-condb	2021-02-03 20:44:05	73	G	NON_BLINK	1612385184.922879	1612385184.927925	1612385185.384176	1612385185.5916219	1612385186.1810448	0.7968688011169434	0.5894229412078857	1	0
s3-gonogo-condb	2021-02-03 20:44:05	74	G	NON_BLINK	1612385186.1810448	1612385186.1860301	1612385186.6938536	1612385186.899817	1612385187.4423654	0.748511791229248	0.542548418045044	1	0
s3-gonogo-condb	2021-02-03 20:44:05	75	NG	BLINK	1612385187.4423654	1612385189.4570343	1612385190.0171523	1612385190.2231035	1612385191.273407	1.2562546730041504	1.0503034591674805	1	1
s3-gonogo-condb	2021-02-03 20:44:05	76	G	NON_BLINK	1612385191.273407	1612385191.2783916	1612385191.736677	1612385191.9431257	1612385192.5180974	0.7814204692840576	0.5749716758728027	1	0
s3-gonogo-condb	2021-02-03 20:44:05	77	G	NON_BLINK	1612385192.5180974	1612385192.5231235	1612385193.0297327	1612385193.237188	1612385193.811653	0.7819201946258545	0.5744647979736328	1	0
s3-gonogo-condb	2021-02-03 20:44:05	78	G	NON_BLINK	1612385193.811653	1612385193.8166897	1612385194.424292	1612385194.6294754	1612385195.1355934	0.711301326751709	0.5061180591583252	1	0
s3-gonogo-condb	2021-02-03 20:44:05	79	NG	NON_BLINK	1612385195.1355934	1612385195.1406367	1612385195.5983553	1612385195.8055675	1612385196.8557935	1.2574381828308105	1.0502259731292725	1	1
s3-gonogo-condb	2021-02-03 20:44:05	80	G	BLINK	1612385196.8557935	1612385198.8682957	1612385199.4758923	1612385199.6817205	1612385200.2232878	0.7473955154418945	0.541567325592041	1	0
s3-gonogo-condb	2021-02-03 20:44:05	81	G	NON_BLINK	1612385200.2232878	1612385200.2292325	1612385200.7858002	1612385200.9912138	1612385201.42068	0.6348798274993896	0.42946624755859375	1	0
s3-gonogo-condb	2021-02-03 20:44:05	82	G	NON_BLINK	1612385201.42068	1612385201.4256673	1612385201.9318438	1612385202.1383355	1612385202.7836893	0.8518455028533936	0.6453537940979004	1	0
s3-gonogo-condb	2021-02-03 20:44:05	83	G	NON_BLINK	1612385202.7836893	1612385202.7887025	1612385203.3954008	1612385203.6029363	1612385204.1933584	0.7979576587677002	0.5904221534729004	1	0
s3-gonogo-condb	2021-02-03 20:44:05	84	G	NON_BLINK	1612385204.1933584	1612385204.1983876	1612385204.7555573	1612385204.9620023	1612385205.7440126	0.9884552955627441	0.7820103168487549	1	0
s3-gonogo-condb	2021-02-03 20:44:05	85	G	BLINK	1612385205.7440126	1612385207.757117	1612385208.1641574	1612385208.3705444	1612385208.8702064	0.7060489654541016	0.499661922454834	1	0
s3-gonogo-condb	2021-02-03 20:44:05	86	NG	NON_BLINK	1612385208.8702064	1612385208.8751936	1612385209.4337063	1612385209.6411521	1612385210.691085	1.2573788166046143	1.0499329566955566	1	1
s3-gonogo-condb	2021-02-03 20:44:05	87	G	NON_BLINK	1612385210.691085	1612385210.6960258	1612385211.1015422	1612385211.3079886	1612385211.7753074	0.6737651824951172	0.4673187732696533	1	0
s3-gonogo-condb	2021-02-03 20:44:05	88	G	NON_BLINK	1612385211.7753074	1612385211.7813325	1612385212.1877127	1612385212.3941905	1612385212.9232502	0.7355375289916992	0.529059648513794	1	0
s3-gonogo-condb	2021-02-03 20:44:05	89	G	NON_BLINK	1612385212.9232502	1612385212.9292345	1612385213.385076	1612385213.591095	1612385213.9989424	0.6138663291931152	0.40784740447998047	1	0
s3-gonogo-condb	2021-02-03 20:44:05	90	G	BLINK	1612385213.9989424	1612385216.0141046	1612385216.469861	1612385216.6773696	1612385217.146052	0.6761908531188965	0.46868228912353516	1	0
s3-gonogo-condb	2021-02-03 20:44:05	91	NG	NON_BLINK	1612385217.146052	1612385217.1520355	1612385217.5599518	1612385217.7670102	1612385218.817158	1.2572062015533447	1.0501477718353271	1	1
s3-gonogo-condb	2021-02-03 20:44:05	92	G	NON_BLINK	1612385218.817158	1612385218.8222022	1612385219.3284974	1612385219.5350063	1612385220.0356038	0.707106351852417	0.5005974769592285	1	0
s3-gonogo-condb	2021-02-03 20:44:05	93	G	NON_BLINK	1612385220.0356038	1612385220.0405993	1612385220.5991883	1612385220.8066278	1612385221.3390658	0.739877462387085	0.5324380397796631	1	0
s3-gonogo-condb	2021-02-03 20:44:05	94	G	NON_BLINK	1612385221.3390658	1612385221.3440542	1612385221.752023	1612385221.9584627	1612385222.4118643	0.6598412990570068	0.4534015655517578	1	0
s3-gonogo-condb	2021-02-03 20:44:05	95	G	BLINK	1612385222.4118643	1612385224.4261334	1612385224.8834834	1612385225.0899415	1612385225.709723	0.8262395858764648	0.619781494140625	1	0
s3-gonogo-condb	2021-02-03 20:44:05	96	G	NON_BLINK	1612385225.709723	1612385225.7157109	1612385226.2216985	1612385226.428134	1612385226.8180895	0.596390962600708	0.3899555206298828	1	0
s3-gonogo-condb	2021-02-03 20:44:05	97	G	NON_BLINK	1612385226.8180895	1612385226.8241348	1612385227.2299893	1612385227.4374495	1612385227.917594	0.6876046657562256	0.4801445007324219	1	0
s3-gonogo-condb	2021-02-03 20:44:05	98	G	NON_BLINK	1612385227.917594	1612385227.9226167	1612385228.4293146	1612385228.6356869	1612385229.0780108	0.6486961841583252	0.4423239231109619	1	0
s3-gonogo-condb	2021-02-03 20:44:05	99	G	NON_BLINK	1612385229.0780108	1612385229.0839949	1612385229.5911834	1612385229.7991626	1612385230.2155566	0.624373197555542	0.4163939952850342	1	0
s3-gonogo-condb	2021-02-03 20:44:05	100	G	BLINK	1612385230.2155566	1612385232.228107	1612385232.6843753	1612385232.8898926	1612385233.4160407	0.7316653728485107	0.5261480808258057	1	0
s3-gonogo-condb	2021-02-03 20:44:05	101	NG	NON_BLINK	1612385233.4160407	1612385233.4210277	1612385233.9785366	1612385234.186978	1612385235.2366266	1.2580900192260742	1.0496485233306885	1	1
s3-gonogo-condb	2021-02-03 20:44:05	102	G	NON_BLINK	1612385235.2366266	1612385235.2416708	1612385235.7483215	1612385235.9543178	1612385236.1733255	0.4250040054321289	0.2190077304840088	1	0
s3-gonogo-condb	2021-02-03 20:44:05	103	G	NON_BLINK	1612385236.1733255	1612385236.1783118	1612385236.7839174	1612385236.9903202	1612385237.3543835	0.5704660415649414	0.3640632629394531	1	0
s3-gonogo-condb	2021-02-03 20:44:05	104	G	NON_BLINK	1612385237.3553457	1612385237.3593326	1612385237.9653296	1612385238.170723	1612385238.670386	0.7050564289093018	0.4996631145477295	1	0
s3-gonogo-condb	2021-02-03 20:44:05	105	NG	BLINK	1612385238.670386	1612385240.6845453	1612385241.142299	1612385241.3487682	1612385242.398489	1.2561900615692139	1.0497207641601562	1	1
s3-gonogo-condb	2021-02-03 20:44:05	106	NG	NON_BLINK	1612385242.398489	1612385242.4054685	1612385242.9658403	1612385243.1718068	1612385244.2225194	1.2566790580749512	1.0507125854492188	1	1
s3-gonogo-condb	2021-02-03 20:44:05	107	G	NON_BLINK	1612385244.2225194	1612385244.2275176	1612385244.7358632	1612385244.9422758	1612385245.4808173	0.7449541091918945	0.5385415554046631	1	0
s3-gonogo-condb	2021-02-03 20:44:05	108	G	NON_BLINK	1612385245.4808173	1612385245.4858406	1612385245.9909585	1612385246.1981056	1612385246.558031	0.5670726299285889	0.3599255084991455	1	0
s3-gonogo-condb	2021-02-03 20:44:05	109	G	NON_BLINK	1612385246.558031	1612385246.563061	1612385247.168972	1612385247.3754058	1612385247.6233032	0.4543311595916748	0.24789738655090332	1	0
s3-gonogo-condb	2021-02-03 20:44:05	110	NG	BLINK	1612385247.6233032	1612385249.6368206	1612385250.2451909	1612385250.4511926	1612385251.5013003	1.2561094760894775	1.050107717514038	1	1
s3-gonogo-condb	2021-02-03 20:44:05	111	G	NON_BLINK	1612385251.5013003	1612385251.5063295	1612385252.0627975	1612385252.2712228	1612385252.6423244	0.5795269012451172	0.37110161781311035	1	0
s3-gonogo-condb	2021-02-03 20:44:05	112	G	NON_BLINK	1612385252.6423244	1612385252.6483645	1612385253.105084	1612385253.3125298	1612385253.887004	0.7819199562072754	0.5744740962982178	1	0
s3-gonogo-condb	2021-02-03 20:44:05	113	G	NON_BLINK	1612385253.887004	1612385253.8920467	1612385254.4480171	1612385254.6564598	1612385255.2449298	0.796912670135498	0.5884699821472168	1	0
s3-gonogo-condb	2021-02-03 20:44:05	114	G	NON_BLINK	1612385255.2449298	1612385255.2499764	1612385255.6569138	1612385255.8653703	1612385256.4747403	0.817826509475708	0.6093699932098389	1	0
s3-gonogo-condb	2021-02-03 20:44:05	115	G	BLINK	1612385256.4747403	1612385258.488288	1612385258.8945234	1612385259.102923	1612385259.6055815	0.7110581398010254	0.5026586055755615	1	0
s3-gonogo-condb	2021-02-03 20:44:05	116	G	NON_BLINK	1612385259.6055815	1612385259.610567	1612385260.1178136	1612385260.3248258	1612385260.9218242	0.8040106296539307	0.5969984531402588	1	0
s3-gonogo-condb	2021-02-03 20:44:05	117	G	NON_BLINK	1612385260.9218242	1612385260.9268115	1612385261.483278	1612385261.6892877	1612385262.1275725	0.6442945003509521	0.43828487396240234	1	0
s3-gonogo-condb	2021-02-03 20:44:05	118	G	NON_BLINK	1612385262.1275725	1612385262.1326134	1612385262.6908474	1612385262.89729	1612385263.3700252	0.6791777610778809	0.4727351665496826	1	0
s3-gonogo-condb	2021-02-03 20:44:05	119	G	NON_BLINK	1612385263.3700252	1612385263.3750134	1612385263.8829255	1612385264.0898805	1612385264.5755794	0.6926538944244385	0.485698938369751	1	0
s3-gonogo-condb	2021-02-03 20:44:05	120	NG	BLINK	1612385264.5755794	1612385266.5925586	1612385267.0508444	1612385267.2573018	1612385268.3070004	1.2561559677124023	1.0496985912322998	1	1
s3-gonogo-condb	2021-02-03 20:44:05	121	G	NON_BLINK	1612385268.3070004	1612385268.3129842	1612385268.7195663	1612385268.9255111	1612385269.401295	0.6817286014556885	0.4757838249206543	1	0
s3-gonogo-condb	2021-02-03 20:44:05	122	G	NON_BLINK	1612385269.401295	1612385269.407279	1612385270.014226	1612385270.219677	1612385270.7553592	0.7411332130432129	0.535682201385498	1	0
s3-gonogo-condb	2021-02-03 20:44:05	123	G	NON_BLINK	1612385270.756354	1612385270.761396	1612385271.21712	1612385271.42357	1612385271.9212434	0.7041234970092773	0.49767351150512695	1	0
s3-gonogo-condb	2021-02-03 20:44:05	124	G	NON_BLINK	1612385271.9212434	1612385271.927229	1612385272.4327998	1612385272.6392033	1612385273.079026	0.646226167678833	0.4398226737976074	1	0
s3-gonogo-condb	2021-02-03 20:44:05	125	G	BLINK	1612385273.079026	1612385275.09256	1612385275.4989436	1612385275.705413	1612385276.1851845	0.6862409114837646	0.47977137565612793	1	0
s3-gonogo-condb	2021-02-03 20:44:05	126	NG	NON_BLINK	1612385276.1851845	1612385276.1911676	1612385276.6493948	1612385276.8558424	1612385277.9060566	1.2566618919372559	1.0502142906188965	1	1
s3-gonogo-condb	2021-02-03 20:44:05	127	NG	NON_BLINK	1612385277.9060566	1612385277.911091	1612385278.418449	1612385278.6259427	1612385279.676083	1.257634162902832	1.050140380859375	1	1
s3-gonogo-condb	2021-02-03 20:44:05	128	G	NON_BLINK	1612385279.676083	1612385279.6820688	1612385280.239955	1612385280.4459155	1612385281.0174232	0.777468204498291	0.5715076923370361	1	0
s3-gonogo-condb	2021-02-03 20:44:05	129	NG	NON_BLINK	1612385281.0174232	1612385281.023364	1612385281.5336142	1612385281.7400017	1612385282.790209	1.2565948963165283	1.0502073764801025	1	1
s3-gonogo-condb	2021-02-03 20:44:05	130	G	BLINK	1612385282.790209	1612385284.8066378	1612385285.2649546	1612385285.4724364	1612385285.9192274	0.6542727947235107	0.4467909336090088	1	0
s3-gonogo-condb	2021-02-03 20:44:05	131	G	NON_BLINK	1612385285.9192274	1612385285.9252105	1612385286.4830468	1612385286.6889935	1612385287.260426	0.7773792743682861	0.5714325904846191	1	0
s3-gonogo-condb	2021-02-03 20:44:05	132	G	NON_BLINK	1612385287.260426	1612385287.2664542	1612385287.8728933	1612385288.0787964	1612385288.4198802	0.5469868183135986	0.3410837650299072	1	0
s3-gonogo-condb	2021-02-03 20:44:05	133	G	NON_BLINK	1612385288.4198802	1612385288.4269187	1612385288.8328323	1612385289.0392475	1612385289.483582	0.650749683380127	0.4443345069885254	1	0
