PARTICIPANT	SESSION_TIMESTAMP	TRIAL_N	CURRENT_TRIAL	TRIAL_TYPE	TRIAL_START_TIME	FIXATION_ONSET_TIME	STIM_ONSET_TIME	MASK_ONSET_TIME	RESPONSE_GIVEN_TIME	RT_REL_STIM_ONSET	RT_REL_MASK_ONSET	ACCURACY	TIMEOUT
S01	2021-01-13 18:19:51	1	G	NON_BLINK	1610562005.9126089	1610562005.9236107	1610562006.3316092	1610562006.54361	1610562006.780608	0.44899868965148926	0.2369978427886963	1	0
S01	2021-01-13 18:19:51	2	G	NON_BLINK	1610562006.780608	1610562006.7876084	1610562007.1956093	1610562007.4066122	1610562007.57361	0.37800073623657227	0.16699790954589844	1	0
S01	2021-01-13 18:19:51	3	G	NON_BLINK	1610562007.57361	1610562007.581609	1610562008.142609	1610562008.3496087	1610562008.521607	0.3789980411529541	0.1719982624053955	1	0
S01	2021-01-13 18:19:51	4	G	NON_BLINK	1610562008.521607	1610562008.5286086	1610562009.037609	1610562009.2456088	1610562009.4496067	0.41199755668640137	0.20399785041809082	1	0
S01	2021-01-13 18:19:51	5	G	BLINK	1610562009.4496067	1610562011.4678843	1610562012.076884	1610562012.2858837	1610562012.499883	0.42299890518188477	0.21399927139282227	1	0
S01	2021-01-13 18:19:51	6	NG	NON_BLINK	1610562012.499883	1610562012.5078835	1610562013.0178828	1610562013.2288842	1610562014.2798803	1.2619974613189697	1.0509960651397705	1	1
S01	2021-01-13 18:19:51	7	G	NON_BLINK	1610562014.2798803	1610562014.2898843	1610562014.8998802	1610562015.1088815	1610562015.3288803	0.4290001392364502	0.21999883651733398	1	0
S01	2021-01-13 18:19:51	8	NG	NON_BLINK	1610562015.3288803	1610562015.3378804	1610562015.8468802	1610562016.0548794	1610562017.1058784	1.258998155593872	1.0509989261627197	1	1
S01	2021-01-13 18:19:51	9	G	NON_BLINK	1610562017.1058784	1610562017.1158786	1610562017.6272185	1610562017.8358796	1610562018.1828778	0.555659294128418	0.3469982147216797	1	0
S01	2021-01-13 18:19:51	10	G	BLINK	1610562018.1828778	1610562020.2078774	1610562020.7688773	1610562020.978185	1610562021.3338761	0.5649988651275635	0.35569119453430176	1	0
S01	2021-01-13 18:19:51	11	G	NON_BLINK	1610562021.3338761	1610562021.340876	1610562021.8008761	1610562022.0088754	1610562022.3418748	0.5409986972808838	0.33299946784973145	1	0
S01	2021-01-13 18:19:51	12	G	NON_BLINK	1610562022.3418748	1610562022.3498752	1610562022.8088746	1610562023.0178745	1610562023.269874	0.4609994888305664	0.2519996166229248	1	0
S01	2021-01-13 18:19:51	13	G	NON_BLINK	1610562023.269874	1610562023.2778752	1610562023.6868746	1610562023.8968737	1610562024.2028744	0.5159997940063477	0.3060007095336914	1	0
S01	2021-01-13 18:19:51	14	G	NON_BLINK	1610562024.2028744	1610562024.2118742	1610562024.8208728	1610562025.029872	1610562025.306872	0.48599910736083984	0.27699995040893555	1	0
S01	2021-01-13 18:19:51	15	G	BLINK	1610562025.306872	1610562027.3238702	1610562027.7808728	1610562027.9918702	1610562028.3618705	0.5809977054595947	0.37000036239624023	1	0
S01	2021-01-13 18:19:51	16	G	NON_BLINK	1610562028.3618705	1610562028.3698707	1610562028.8288708	1610562029.0368688	1610562029.32487	0.4959993362426758	0.28800129890441895	1	0
S01	2021-01-13 18:19:51	17	NG	NON_BLINK	1610562029.32487	1610562029.33287	1610562029.8928683	1610562030.1008687	1610562031.1518672	1.2589988708496094	1.0509984493255615	1	1
S01	2021-01-13 18:19:51	18	NG	NON_BLINK	1610562031.1518672	1610562031.1598692	1610562031.7698677	1610562031.9778671	1610562033.0278673	1.2579996585845947	1.0500001907348633	1	1
S01	2021-01-13 18:19:51	19	G	NON_BLINK	1610562033.0288668	1610562033.0368671	1610562033.6458662	1610562033.8538666	1610562034.1718647	0.525998592376709	0.31799817085266113	1	0
S01	2021-01-13 18:19:51	20	G	BLINK	1610562034.1718647	1610562036.1918647	1610562036.7518644	1610562036.959863	1610562037.2568645	0.505000114440918	0.29700160026550293	1	0
S01	2021-01-13 18:19:51	21	G	NON_BLINK	1610562037.2568645	1610562037.268864	1610562037.680862	1610562037.8908632	1610562038.1498616	0.46899962425231934	0.25899839401245117	1	0
S01	2021-01-13 18:19:51	22	G	NON_BLINK	1610562038.1498616	1610562038.1578634	1610562038.6668622	1610562038.8778613	1610562039.1228619	0.45599961280822754	0.24500060081481934	1	0
S01	2021-01-13 18:19:51	23	NG	NON_BLINK	1610562039.1228619	1610562039.1298623	1610562039.5408626	1610562039.7508602	1610562040.8008606	1.259998083114624	1.0500004291534424	1	1
S01	2021-01-13 18:19:51	24	G	NON_BLINK	1610562040.8008606	1610562040.8088603	1610562041.217862	1610562041.4278605	1610562041.745861	0.5279991626739502	0.31800055503845215	1	0
S01	2021-01-13 18:19:51	25	NG	BLINK	1610562041.745861	1610562043.7618587	1610562044.322858	1610562044.533857	1610562045.5838556	1.2609975337982178	1.0499985218048096	1	1
S01	2021-01-13 18:19:51	26	NG	NON_BLINK	1610562045.5838556	1610562045.5918555	1610562046.099857	1610562046.307857	1610562047.3578541	1.2579970359802246	1.049997091293335	1	1
S01	2021-01-13 18:19:51	27	G	NON_BLINK	1610562047.3578541	1610562047.3658552	1610562047.8268552	1610562048.035855	1610562048.4288547	0.6019995212554932	0.39299964904785156	1	0
S01	2021-01-13 18:19:51	28	NG	NON_BLINK	1610562048.4288547	1610562048.4368548	1610562049.0458531	1610562049.253853	1610562050.304853	1.2589998245239258	1.0509998798370361	1	1
S01	2021-01-13 18:19:51	29	G	NON_BLINK	1610562050.304853	1610562050.3128533	1610562050.8218527	1610562051.0308533	1610562051.418853	0.5970003604888916	0.3879997730255127	1	0
S01	2021-01-13 18:19:51	30	NG	BLINK	1610562051.418853	1610562053.4388504	1610562054.04785	1610562054.2578502	1610562055.308849	1.2609992027282715	1.0509989261627197	1	1
S01	2021-01-13 18:19:51	31	NG	NON_BLINK	1610562055.308849	1610562055.31785	1610562055.7278495	1610562055.9358478	1610562056.9868464	1.2589969635009766	1.0509986877441406	1	1
S01	2021-01-13 18:19:51	32	G	NON_BLINK	1610562056.9868464	1610562056.994847	1610562057.4548464	1610562057.6638477	1610562057.8698468	0.41500043869018555	0.20599913597106934	1	0
S01	2021-01-13 18:19:51	33	NG	NON_BLINK	1610562057.8698468	1610562057.876847	1610562058.3848453	1610562058.5958471	1610562059.6458452	1.2609999179840088	1.0499980449676514	1	1
S01	2021-01-13 18:19:51	34	G	NON_BLINK	1610562059.6458452	1610562059.6558442	1610562060.0638447	1610562060.272845	1610562060.553844	0.48999929428100586	0.28099894523620605	1	0
S01	2021-01-13 18:19:51	35	NG	BLINK	1610562060.553844	1610562062.572843	1610562063.0398417	1610562063.248843	1610562064.2998407	1.2599990367889404	1.0509977340698242	1	1
S01	2021-01-13 18:19:51	36	G	NON_BLINK	1610562064.2998407	1610562064.3078418	1610562064.8698423	1610562065.0798414	1610562065.3398402	0.4699978828430176	0.25999879837036133	1	0
S01	2021-01-13 18:19:51	37	NG	NON_BLINK	1610562065.3398402	1610562065.34784	1610562065.9568412	1610562066.1658404	1610562067.2158399	1.2589986324310303	1.049999475479126	1	1
S01	2021-01-13 18:19:51	38	G	NON_BLINK	1610562067.2158399	1610562067.2238402	1610562067.832839	1610562068.0408375	1610562068.3848376	0.5519986152648926	0.34400010108947754	1	0
S01	2021-01-13 18:19:51	39	G	NON_BLINK	1610562068.3848376	1610562068.3928397	1610562068.9018383	1610562069.128839	1610562069.4538372	0.5519988536834717	0.324998140335083	1	0
S01	2021-01-13 18:19:51	40	G	BLINK	1610562069.4538372	1610562071.4708364	1610562072.0798337	1610562072.2898345	1610562072.6238344	0.5440006256103516	0.3339998722076416	1	0
S01	2021-01-13 18:19:51	41	NG	NON_BLINK	1610562072.6238344	1610562072.6318343	1610562073.2398348	1610562073.4488337	1610562074.4988344	1.2589995861053467	1.0500006675720215	1	1
S01	2021-01-13 18:19:51	42	G	NON_BLINK	1610562074.4998324	1610562074.5078325	1610562075.1178334	1610562075.3258317	1610562075.6698327	0.5519993305206299	0.34400105476379395	1	0
S01	2021-01-13 18:19:51	43	G	NON_BLINK	1610562075.6698327	1610562075.6778321	1610562076.2858326	1610562076.4948332	1610562076.7778301	0.49199748039245605	0.28299689292907715	1	0
S01	2021-01-13 18:19:51	44	G	NON_BLINK	1610562076.778832	1610562076.7858315	1610562077.3458316	1610562077.5538309	1610562077.85183	0.5059983730316162	0.29799914360046387	1	0
S01	2021-01-13 18:19:51	45	G	BLINK	1610562077.85183	1610562079.8688307	1610562080.377829	1610562080.5868278	1610562080.8518298	0.4740006923675537	0.2650020122528076	1	0
S01	2021-01-13 18:19:51	46	G	NON_BLINK	1610562080.8518298	1610562080.860828	1610562081.3198273	1610562081.528828	1610562081.799826	0.4799985885620117	0.2709980010986328	1	0
S01	2021-01-13 18:19:51	47	G	NON_BLINK	1610562081.799826	1610562081.8078268	1610562082.2168264	1610562082.4258275	1610562082.682827	0.4660005569458008	0.25699949264526367	1	0
S01	2021-01-13 18:19:51	48	G	NON_BLINK	1610562082.682827	1610562082.6908283	1610562083.1008263	1610562083.309827	1610562083.5058265	0.4050002098083496	0.1959993839263916	1	0
S01	2021-01-13 18:19:51	49	G	NON_BLINK	1610562083.5058265	1610562083.5138268	1610562083.9738274	1610562084.1828263	1610562084.413824	0.43999671936035156	0.23099780082702637	1	0
S01	2021-01-13 18:19:51	50	G	BLINK	1610562084.413824	1610562086.4308228	1610562086.9398234	1610562087.1508255	1610562087.4538243	0.5140008926391602	0.30299878120422363	1	0
S01	2021-01-13 18:19:51	51	G	NON_BLINK	1610562087.4538243	1610562087.4618232	1610562087.970823	1610562088.1788216	1610562088.4268212	0.45599818229675293	0.2479996681213379	1	0
S01	2021-01-13 18:19:51	52	G	NON_BLINK	1610562088.4268212	1610562088.4348207	1610562088.8438222	1610562089.055822	1610562089.299821	0.45599865913391113	0.24399900436401367	1	0
S01	2021-01-13 18:19:51	53	G	NON_BLINK	1610562089.299821	1610562089.3098211	1610562089.8178196	1610562090.0268216	1610562090.218822	0.4010024070739746	0.1920003890991211	1	0
S01	2021-01-13 18:19:51	54	NG	NON_BLINK	1610562090.218822	1610562090.2268214	1610562090.8358202	1610562091.044819	1610562092.0948184	1.258998155593872	1.0499992370605469	1	1
S01	2021-01-13 18:19:51	55	G	BLINK	1610562092.0948184	1610562094.1118183	1610562094.5208178	1610562094.7308204	1610562095.0398178	0.5190000534057617	0.30899739265441895	1	0
S01	2021-01-13 18:19:51	56	NG	NON_BLINK	1610562095.0398178	1610562095.0478172	1610562095.6098175	1610562095.8188167	1610562096.8688147	1.2589972019195557	1.0499980449676514	1	1
S01	2021-01-13 18:19:51	57	G	NON_BLINK	1610562096.8698149	1610562096.8768153	1610562097.436815	1610562097.6458151	1610562097.9848151	0.5480000972747803	0.33899998664855957	1	0
S01	2021-01-13 18:19:51	58	G	NON_BLINK	1610562097.9848151	1610562097.9928145	1610562098.5528142	1610562098.762813	1610562099.0528123	0.4999980926513672	0.28999924659729004	1	0
S01	2021-01-13 18:19:51	59	G	NON_BLINK	1610562099.0538135	1610562099.060813	1610562099.6288128	1610562099.8368123	1610562100.1368134	0.5080006122589111	0.3000011444091797	1	0
S01	2021-01-13 18:19:51	60	G	BLINK	1610562100.1368134	1610562102.1548119	1610562102.66381	1610562102.8728113	1610562103.2018094	0.5379993915557861	0.3289980888366699	1	0
S01	2021-01-13 18:19:51	61	G	NON_BLINK	1610562103.2018094	1610562103.2098107	1610562103.6178088	1610562103.8268132	1610562104.1558099	0.5380010604858398	0.3289966583251953	1	0
S01	2021-01-13 18:19:51	62	G	NON_BLINK	1610562104.1558099	1610562104.1648097	1610562104.7248082	1610562104.9338088	1610562105.1538088	0.4290006160736084	0.2200000286102295	1	0
S01	2021-01-13 18:19:51	63	G	NON_BLINK	1610562105.1538088	1610562105.160811	1610562105.6698098	1610562105.8798084	1610562106.0318081	0.3619983196258545	0.15199971199035645	1	0
S01	2021-01-13 18:19:51	64	G	NON_BLINK	1610562106.0318081	1610562106.0388076	1610562106.5998073	1610562106.8078074	1610562107.0548072	0.4549999237060547	0.24699974060058594	1	0
S01	2021-01-13 18:19:51	65	G	BLINK	1610562107.0558076	1610562109.072805	1610562109.6828055	1610562109.8918047	1610562110.095806	0.41300034523010254	0.20400118827819824	1	0
S01	2021-01-13 18:19:51	66	G	NON_BLINK	1610562110.095806	1610562110.103805	1610562110.5128062	1610562110.723805	1610562110.9638045	0.45099830627441406	0.23999953269958496	1	0
S01	2021-01-13 18:19:51	67	NG	NON_BLINK	1610562110.9638045	1610562110.9708033	1610562111.4818041	1610562111.6908069	1610562112.7418034	1.2599992752075195	1.0509965419769287	1	1
S01	2021-01-13 18:19:51	68	G	NON_BLINK	1610562112.7418034	1610562112.7518034	1610562113.2608025	1610562113.468804	1610562113.7578022	0.49699974060058594	0.2889983654022217	1	0
S01	2021-01-13 18:19:51	69	NG	NON_BLINK	1610562113.7578022	1610562113.765803	1610562114.3748014	1610562114.5828025	1610562115.6327994	1.257997989654541	1.0499968528747559	1	1
S01	2021-01-13 18:19:51	70	NG	BLINK	1610562115.6327994	1610562117.6507988	1610562118.2108018	1610562118.4197989	1610562119.4707983	1.2599964141845703	1.050999402999878	1	1
S01	2021-01-13 18:19:51	71	NG	NON_BLINK	1610562119.4707983	1610562119.4797962	1610562120.0947974	1610562120.305798	1610562121.3557947	1.2609972953796387	1.0499966144561768	1	1
S01	2021-01-13 18:19:51	72	G	NON_BLINK	1610562121.3567953	1610562121.364796	1610562121.9237945	1610562122.1347945	1610562122.5127952	0.5890007019042969	0.37800073623657227	1	0
S01	2021-01-13 18:19:51	73	NG	NON_BLINK	1610562122.5137966	1610562122.5237956	1610562122.9327967	1610562123.1437945	1610562124.1937938	1.2609970569610596	1.0499992370605469	1	1
S01	2021-01-13 18:19:51	74	G	NON_BLINK	1610562124.1937938	1610562124.2017941	1610562124.6617956	1610562124.870794	1610562125.241792	0.5799963474273682	0.37099790573120117	1	0
S01	2021-01-13 18:19:51	75	G	BLINK	1610562125.241792	1610562127.257791	1610562127.6677907	1610562127.8777895	1610562128.22679	0.5589993000030518	0.3490004539489746	1	0
S01	2021-01-13 18:19:51	76	G	NON_BLINK	1610562128.22679	1610562128.23479	1610562128.6467912	1610562128.8577893	1610562129.0847895	0.43799829483032227	0.22700023651123047	1	0
S01	2021-01-13 18:19:51	77	G	NON_BLINK	1610562129.0847895	1610562129.0927892	1610562129.50379	1610562129.71379	1610562129.8767893	0.3729994297027588	0.16299939155578613	1	0
S01	2021-01-13 18:19:51	78	G	NON_BLINK	1610562129.877789	1610562129.8857894	1610562130.4957867	1610562130.710788	1610562130.9757867	0.48000001907348633	0.2649986743927002	1	0
S01	2021-01-13 18:19:51	79	G	NON_BLINK	1610562130.9757867	1610562130.9847875	1610562131.4437883	1610562131.6537871	1610562131.9187882	0.47499990463256836	0.2650010585784912	1	0
S01	2021-01-13 18:19:51	80	NG	BLINK	1610562131.9187882	1610562133.9477878	1610562134.457787	1610562134.6697867	1610562135.7197845	1.2619974613189697	1.0499978065490723	1	1
S01	2021-01-13 18:19:51	81	NG	NON_BLINK	1610562135.7197845	1610562135.7277846	1610562136.3367834	1610562136.5447829	1610562137.5957835	1.2590000629425049	1.0510005950927734	1	1
S01	2021-01-13 18:19:51	82	G	NON_BLINK	1610562137.5957835	1610562137.6027822	1610562138.1627834	1610562138.3707812	1610562138.7677817	0.6049983501434326	0.3970005512237549	1	0
S01	2021-01-13 18:19:51	83	G	NON_BLINK	1610562138.7677817	1610562138.7747822	1610562139.183781	1610562139.3937805	1610562139.6097806	0.42599964141845703	0.21600008010864258	1	0
S01	2021-01-13 18:19:51	84	G	NON_BLINK	1610562139.6097806	1610562139.6177802	1610562140.0767794	1610562140.2867818	1610562140.452779	0.37599968910217285	0.16599726676940918	1	0
S01	2021-01-13 18:19:51	85	G	BLINK	1610562140.452779	1610562142.4707801	1610562142.9797785	1610562143.1877806	1610562143.4627786	0.4830000400543213	0.2749979496002197	1	0
S01	2021-01-13 18:19:51	86	G	NON_BLINK	1610562143.4637785	1610562143.471779	1610562144.0807776	1610562144.2897778	1610562144.5037768	0.42299914360046387	0.21399903297424316	1	0
S01	2021-01-13 18:19:51	87	NG	NON_BLINK	1610562144.5037768	1610562144.5127783	1610562144.9227777	1610562145.1317778	1610562146.182775	1.2599973678588867	1.050997257232666	1	1
S01	2021-01-13 18:19:51	88	G	NON_BLINK	1610562146.182775	1610562146.1897764	1610562146.7007754	1610562146.9107764	1610562147.210773	0.5099976062774658	0.29999661445617676	1	0
S01	2021-01-13 18:19:51	89	G	NON_BLINK	1610562147.210773	1610562147.2187765	1610562147.829775	1610562148.0387747	1610562148.2997737	0.4699985980987549	0.2609989643096924	1	0
S01	2021-01-13 18:19:51	90	G	BLINK	1610562148.2997737	1610562150.3167713	1610562150.7247713	1610562150.9337716	1610562151.1997721	0.47500085830688477	0.26600050926208496	1	0
S01	2021-01-13 18:19:51	91	G	NON_BLINK	1610562151.1997721	1610562151.2077727	1610562151.8167713	1610562152.0327716	1610562152.2477694	0.4309980869293213	0.2149977684020996	1	0
S01	2021-01-13 18:19:51	92	G	NON_BLINK	1610562152.2477694	1610562152.2557719	1610562152.6647716	1610562152.8747706	1610562153.1107707	0.4459991455078125	0.23600006103515625	1	0
S01	2021-01-13 18:19:51	93	G	NON_BLINK	1610562153.1107707	1610562153.1187727	1610562153.5277715	1610562153.7367702	1610562153.9487693	0.42099785804748535	0.21199917793273926	1	0
S01	2021-01-13 18:19:51	94	G	NON_BLINK	1610562153.9487693	1610562153.955771	1610562154.41477	1610562154.623769	1610562154.7817693	0.36699938774108887	0.15800023078918457	1	0
S01	2021-01-13 18:19:51	95	G	BLINK	1610562154.7817693	1610562156.7977667	1610562157.4067705	1610562157.6147664	1610562157.8867655	0.4799950122833252	0.2719991207122803	1	0
S01	2021-01-13 18:19:51	96	G	NON_BLINK	1610562157.8867655	1610562157.8947673	1610562158.303766	1610562158.5117652	1610562158.6897662	0.3860001564025879	0.17800092697143555	1	0
S01	2021-01-13 18:19:51	97	G	NON_BLINK	1610562158.6897662	1610562158.697768	1610562159.2577648	1610562159.4667659	1610562159.5737648	0.31599998474121094	0.10699892044067383	1	0
S01	2021-01-13 18:19:51	98	NG	NON_BLINK	1610562159.5737648	1610562159.5807664	1610562160.141765	1610562160.3507638	1610562160.4757657	0.3340005874633789	0.1250019073486328	0	0
S01	2021-01-13 18:19:51	99	G	NON_BLINK	1610562160.8907633	1610562160.8977647	1610562161.5057633	1610562161.713764	1610562161.8297625	0.32399916648864746	0.11599850654602051	1	0
S01	2021-01-13 18:19:51	100	NG	BLINK	1610562161.8297625	1610562163.8507612	1610562164.4107614	1610562164.619762	1610562165.6697595	1.258998155593872	1.0499975681304932	1	1
S01	2021-01-13 18:19:51	101	G	NON_BLINK	1610562165.6697595	1610562165.6777606	1610562166.085761	1610562166.2937608	1610562166.4457605	0.359999418258667	0.15199971199035645	1	0
S01	2021-01-13 18:19:51	102	G	NON_BLINK	1610562166.4457605	1610562166.4527593	1610562166.8707612	1610562167.078761	1610562167.3077586	0.4369974136352539	0.22899746894836426	1	0
S01	2021-01-13 18:19:51	103	NG	NON_BLINK	1610562167.3087595	1610562167.3167586	1610562167.7257578	1610562167.936758	1610562168.9867587	1.2610008716583252	1.0500006675720215	1	1
S01	2021-01-13 18:19:51	104	G	NON_BLINK	1610562168.9867587	1610562168.9957576	1610562169.504759	1610562169.7137587	1610562169.981756	0.47699689865112305	0.26799726486206055	1	0
S01	2021-01-13 18:19:51	105	G	BLINK	1610562169.981756	1610562171.9987562	1610562172.607754	1610562172.817754	1610562173.2937555	0.6860015392303467	0.476001501083374	1	0
S01	2021-01-13 18:19:51	106	G	NON_BLINK	1610562173.2937555	1610562173.302806	1610562173.8617527	1610562174.071754	1610562174.346754	0.4850013256072998	0.27500009536743164	1	0
S01	2021-01-13 18:19:51	107	G	NON_BLINK	1610562174.346754	1610562174.3547533	1610562174.963752	1610562175.1717534	1610562175.3997529	0.4360008239746094	0.22799944877624512	1	0
S01	2021-01-13 18:19:51	108	NG	NON_BLINK	1610562175.400752	1610562175.4077513	1610562175.8657517	1610562176.0747526	1610562177.1247516	1.2589998245239258	1.0499989986419678	1	1
S01	2021-01-13 18:19:51	109	G	NON_BLINK	1610562177.1247516	1610562177.1317518	1610562177.5417514	1610562177.750752	1610562177.9337509	0.3919994831085205	0.1829988956451416	1	0
S01	2021-01-13 18:19:51	110	G	BLINK	1610562177.9337509	1610562179.9507496	1610562180.4607484	1610562180.6697495	1610562180.9037473	0.44299888610839844	0.23399782180786133	1	0
S01	2021-01-13 18:19:51	111	G	NON_BLINK	1610562180.9037473	1610562180.9107497	1610562181.3197482	1610562181.5287483	1610562181.7807474	0.4609992504119873	0.2519991397857666	1	0
S01	2021-01-13 18:19:51	112	G	NON_BLINK	1610562181.781747	1610562181.7887475	1610562182.2467482	1610562182.455746	1610562182.8097463	0.5629980564117432	0.3540003299713135	1	0
S01	2021-01-13 18:19:51	113	G	NON_BLINK	1610562182.8097463	1610562182.8177466	1610562183.3277452	1610562183.5367467	1610562183.7827458	0.455000638961792	0.24599909782409668	1	0
S01	2021-01-13 18:19:51	114	NG	NON_BLINK	1610562183.7827458	1610562183.790746	1610562184.2497458	1610562184.457746	1610562185.507745	1.2579991817474365	1.0499989986419678	1	1
S01	2021-01-13 18:19:51	115	G	BLINK	1610562185.5087442	1610562187.5247426	1610562187.9357433	1610562188.1447425	1610562188.3477428	0.4119994640350342	0.20300030708312988	1	0
S01	2021-01-13 18:19:51	116	G	NON_BLINK	1610562188.3487427	1610562188.3557422	1610562188.8147438	1610562189.0237422	1610562189.2867444	0.4720005989074707	0.2630021572113037	1	0
S01	2021-01-13 18:19:51	117	G	NON_BLINK	1610562189.2867444	1610562189.2967422	1610562189.7547414	1610562189.9637403	1610562190.2447402	0.48999881744384766	0.28099989891052246	1	0
S01	2021-01-13 18:19:51	118	G	NON_BLINK	1610562190.2447402	1610562190.25274	1610562190.8617408	1610562191.0697403	1610562191.2177393	0.35599851608276367	0.14799904823303223	1	0
S01	2021-01-13 18:19:51	119	NG	NON_BLINK	1610562191.2177393	1610562191.2257388	1610562191.7837389	1610562191.99274	1610562193.0427377	1.2589988708496094	1.0499978065490723	1	1
S01	2021-01-13 18:19:51	120	G	BLINK	1610562193.0427377	1610562195.0617383	1610562195.5217354	1610562195.729736	1610562195.9637349	0.4419994354248047	0.23399877548217773	1	0
S01	2021-01-13 18:19:51	121	G	NON_BLINK	1610562195.9637349	1610562195.9717367	1610562196.5327356	1610562196.7417362	1610562196.957736	0.4250004291534424	0.21599984169006348	1	0
S01	2021-01-13 18:19:51	122	G	NON_BLINK	1610562196.957736	1610562196.966734	1610562197.576735	1610562197.7887347	1610562197.975734	0.3989989757537842	0.18699932098388672	1	0
S01	2021-01-13 18:19:51	123	G	NON_BLINK	1610562197.975734	1610562197.9837334	1610562198.390733	1610562198.6007342	1610562198.8477323	0.4569993019104004	0.24699807167053223	1	0
S01	2021-01-13 18:19:51	124	G	NON_BLINK	1610562198.848736	1610562198.8557343	1610562199.4157321	1610562199.624733	1610562199.801735	0.386002779006958	0.177001953125	1	0
S01	2021-01-13 18:19:51	125	G	BLINK	1610562199.801735	1610562201.8177316	1610562202.2777328	1610562202.4867315	1610562202.76273	0.484997034072876	0.2759983539581299	1	0
S01	2021-01-13 18:19:51	126	NG	NON_BLINK	1610562202.76273	1610562202.7717302	1610562203.1827304	1610562203.3907292	1610562204.4407284	1.257997989654541	1.0499992370605469	1	1
S01	2021-01-13 18:19:51	127	G	NON_BLINK	1610562204.4407284	1610562204.4487293	1610562205.056729	1610562205.2677295	1610562205.4957266	0.4389975070953369	0.2279970645904541	1	0
S01	2021-01-13 18:19:51	128	G	NON_BLINK	1610562205.4957266	1610562205.5037289	1610562206.1137302	1610562206.323728	1610562206.5287266	0.4149963855743408	0.20499849319458008	1	0
S01	2021-01-13 18:19:51	129	G	NON_BLINK	1610562206.5287266	1610562206.5367281	1610562207.0467277	1610562207.2587273	1610562207.501726	0.454998254776001	0.24299860000610352	1	0
S01	2021-01-13 18:19:51	130	G	BLINK	1610562207.5027258	1610562209.5207243	1610562210.080725	1610562210.2897239	1610562210.5277238	0.44699883460998535	0.23799991607666016	1	0
S01	2021-01-13 18:19:51	131	G	NON_BLINK	1610562210.5277238	1610562210.5357256	1610562211.1457238	1610562211.3547242	1610562211.4907236	0.3449997901916504	0.13599944114685059	1	0
S01	2021-01-13 18:19:51	132	G	NON_BLINK	1610562211.4907236	1610562211.4997249	1610562212.109723	1610562212.3197227	1610562212.5237236	0.4140005111694336	0.20400094985961914	1	0
S01	2021-01-13 18:19:51	133	G	NON_BLINK	1610562212.5247242	1610562212.531722	1610562213.1407228	1610562213.3517234	1610562213.5277224	0.38699960708618164	0.17599892616271973	1	0
S01	2021-01-13 18:19:51	134	G	NON_BLINK	1610562213.5277224	1610562213.535461	1610562214.1457288	1610562214.3557324	1610562214.5417275	0.3959987163543701	0.18599510192871094	1	0
S01	2021-01-13 18:19:51	135	G	BLINK	1610562214.5417275	1610562216.5627275	1610562217.0717258	1610562217.2807264	1610562217.5407255	0.46899962425231934	0.25999903678894043	1	0
S01	2021-01-13 18:19:51	136	G	NON_BLINK	1610562217.541727	1610562217.549727	1610562218.1117253	1610562218.3207245	1610562218.5197244	0.40799903869628906	0.19899988174438477	1	0
S01	2021-01-13 18:19:51	137	G	NON_BLINK	1610562218.5197244	1610562218.5267253	1610562218.936724	1610562219.1457236	1610562219.4127245	0.4760005474090576	0.2670009136199951	1	0
S01	2021-01-13 18:19:51	138	G	NON_BLINK	1610562219.4127245	1610562219.4197233	1610562220.0287232	1610562220.2378454	1610562220.43573	0.40700674057006836	0.19788455963134766	1	0
S01	2021-01-13 18:19:51	139	NG	NON_BLINK	1610562220.43573	1610562220.4437299	1610562221.0547283	1610562221.2637289	1610562222.314727	1.2599987983703613	1.0509982109069824	1	1
S01	2021-01-13 18:19:51	140	G	BLINK	1610562222.314727	1610562224.3327286	1610562224.9427261	1610562225.1507263	1610562225.3777282	0.43500208854675293	0.22700190544128418	1	0
S01	2021-01-13 18:19:51	141	G	NON_BLINK	1610562225.3777282	1610562225.3857267	1610562225.7957253	1610562226.003726	1610562226.1947234	0.3989980220794678	0.19099736213684082	1	0
S01	2021-01-13 18:19:51	142	G	NON_BLINK	1610562226.1947234	1610562226.2027254	1610562226.7117238	1610562226.9197247	1610562227.0977235	0.3859996795654297	0.17799878120422363	1	0
S01	2021-01-13 18:19:51	143	G	NON_BLINK	1610562227.0977235	1610562227.1047258	1610562227.613725	1610562227.8227236	1610562227.9657228	0.35199785232543945	0.14299917221069336	1	0
S01	2021-01-13 18:19:51	144	G	NON_BLINK	1610562227.9657228	1610562227.972723	1610562228.5337255	1610562228.741723	1610562228.8047235	0.2709980010986328	0.06300044059753418	1	0
S01	2021-01-13 18:19:51	145	G	BLINK	1610562228.8047235	1610562230.8227222	1610562231.2317202	1610562231.440721	1610562231.7337215	0.5020012855529785	0.2930004596710205	1	0
S01	2021-01-13 18:19:51	146	G	NON_BLINK	1610562231.7337215	1610562231.7407222	1610562232.2007205	1610562232.4107192	1610562232.510719	0.3099985122680664	0.09999990463256836	1	0
S01	2021-01-13 18:19:51	147	G	NON_BLINK	1610562232.510719	1610562232.517721	1610562233.1277199	1610562233.3367186	1610562233.4287193	0.30099940299987793	0.09200072288513184	1	0
S01	2021-01-13 18:19:51	148	G	NON_BLINK	1610562233.4287193	1610562233.4367187	1610562233.84472	1610562234.0537193	1610562234.236718	0.3919980525970459	0.1829986572265625	1	0
S01	2021-01-13 18:19:51	149	G	NON_BLINK	1610562234.236718	1610562234.2447195	1610562234.8547194	1610562235.0637186	1610562235.1897166	0.33499717712402344	0.12599802017211914	1	0
S01	2021-01-13 18:19:51	150	G	BLINK	1610562235.1897166	1610562237.2077172	1610562237.7677164	1610562237.9767172	1610562238.2557151	0.48799872398376465	0.27899789810180664	1	0
S01	2021-01-13 18:19:51	151	G	NON_BLINK	1610562238.2557151	1610562238.2627156	1610562238.871714	1610562239.0807152	1610562239.2987137	0.426999568939209	0.21799850463867188	1	0
S01	2021-01-13 18:19:51	152	G	NON_BLINK	1610562239.2987137	1610562239.3067153	1610562239.9157152	1610562240.1247146	1610562240.3077126	0.3919973373413086	0.1829979419708252	1	0
S01	2021-01-13 18:19:51	153	G	NON_BLINK	1610562240.3077126	1610562240.3167162	1610562240.7767136	1610562240.9857142	1610562241.420713	0.6439993381500244	0.4349987506866455	1	0
S01	2021-01-13 18:19:51	154	G	NON_BLINK	1610562241.4217138	1610562241.4297123	1610562241.988713	1610562242.1977127	1610562242.5297112	0.5409982204437256	0.3319985866546631	1	0
S01	2021-01-13 18:19:51	155	NG	BLINK	1610562242.5297112	1610562244.54871	1610562245.109711	1610562245.3187103	1610562246.3687081	1.2589972019195557	1.0499978065490723	1	1
S01	2021-01-13 18:19:51	156	G	NON_BLINK	1610562246.369708	1610562246.3787088	1610562246.8397098	1610562247.0487075	1610562247.2257075	0.3859977722167969	0.1770000457763672	1	0
S01	2021-01-13 18:19:51	157	G	NON_BLINK	1610562247.2257075	1610562247.2337081	1610562247.7947078	1610562248.0047073	1610562248.1647081	0.37000036239624023	0.16000080108642578	1	0
S01	2021-01-13 18:19:51	158	G	NON_BLINK	1610562248.1647081	1610562248.1727076	1610562248.7827082	1610562248.9927063	1610562249.1227074	0.3399991989135742	0.13000106811523438	1	0
S01	2021-01-13 18:19:51	159	G	NON_BLINK	1610562249.1227074	1610562249.132386	1610562249.7417123	1610562249.953713	1610562250.0307126	0.2890002727508545	0.07699966430664062	1	0
S01	2021-01-13 18:19:51	160	G	BLINK	1610562250.0307126	1610562252.0507116	1610562252.5597122	1610562252.7687109	1610562253.0157104	0.45599818229675293	0.24699950218200684	1	0
S01	2021-01-13 18:19:51	161	NG	NON_BLINK	1610562253.0157104	1610562253.0247102	1610562253.4347105	1610562253.6447096	1610562254.6947095	1.2599990367889404	1.0499999523162842	1	1
S01	2021-01-13 18:19:51	162	G	NON_BLINK	1610562254.6947095	1610562254.703709	1610562255.3127081	1610562255.521711	1610562255.6947079	0.3819997310638428	0.17299675941467285	1	0
S01	2021-01-13 18:19:51	163	G	NON_BLINK	1610562255.6947079	1610562255.7027087	1610562256.1127071	1610562256.3217075	1610562256.5627062	0.4499990940093994	0.2409987449645996	1	0
S01	2021-01-13 18:19:51	164	NG	NON_BLINK	1610562256.5627062	1610562256.5707068	1610562256.981707	1610562257.1917064	1610562258.2417054	1.2599983215332031	1.0499989986419678	1	1
S01	2021-01-13 18:19:51	165	G	BLINK	1610562258.2417054	1610562260.258704	1610562260.717707	1610562260.9277046	1610562261.298704	0.5809969902038574	0.3709993362426758	1	0
S01	2021-01-13 18:19:51	166	G	NON_BLINK	1610562261.298704	1610562261.3077042	1610562261.8677044	1610562262.0767038	1610562262.3827035	0.5149991512298584	0.305999755859375	1	0
S01	2021-01-13 18:19:51	167	G	NON_BLINK	1610562262.3827035	1610562262.391703	1610562263.0037034	1610562263.2127018	1610562263.4957016	0.49199819564819336	0.28299975395202637	1	0
S01	2021-01-13 18:19:51	168	NG	NON_BLINK	1610562263.4967034	1610562263.5047028	1610562263.963701	1610562264.1737015	1610562265.2237003	1.2599992752075195	1.0499987602233887	1	1
S01	2021-01-13 18:19:51	169	NG	NON_BLINK	1610562265.2237003	1610562265.2327013	1610562265.7427025	1610562265.9537024	1610562267.0036986	1.2609961032867432	1.0499961376190186	1	1
S01	2021-01-13 18:19:51	170	G	BLINK	1610562267.0036986	1610562269.0226982	1610562269.531698	1610562269.7416983	1610562270.0486958	0.5169978141784668	0.30699753761291504	1	0
S01	2021-01-13 18:19:51	171	G	NON_BLINK	1610562270.0486958	1610562270.0576978	1610562270.5666971	1610562270.7766955	1610562271.0466971	0.48000001907348633	0.2700016498565674	1	0
S01	2021-01-13 18:19:51	172	G	NON_BLINK	1610562271.0466971	1610562271.0546968	1610562271.6646955	1610562271.8736959	1610562272.0456948	0.3809993267059326	0.1719989776611328	1	0
S01	2021-01-13 18:19:51	173	G	NON_BLINK	1610562272.0456948	1610562272.053696	1610562272.5636961	1610562272.772694	1610562272.9896939	0.4259977340698242	0.21699976921081543	1	0
S01	2021-01-13 18:19:51	174	G	NON_BLINK	1610562272.9896939	1610562272.997696	1610562273.4086938	1610562273.6186934	1610562273.8766947	0.4680008888244629	0.25800132751464844	1	0
S01	2021-01-13 18:19:51	175	G	BLINK	1610562273.8766947	1610562275.8956926	1610562276.4576905	1610562276.667692	1610562276.8216925	0.364001989364624	0.15400052070617676	1	0
S01	2021-01-13 18:19:51	176	G	NON_BLINK	1610562276.8216925	1610562276.830692	1610562277.2406917	1610562277.44969	1610562277.5596936	0.3190019130706787	0.11000347137451172	1	0
S01	2021-01-13 18:19:51	177	G	NON_BLINK	1610562277.5596936	1610562277.5686915	1610562277.98069	1610562278.1896908	1610562278.306691	0.3260009288787842	0.11700010299682617	1	0
S01	2021-01-13 18:19:51	178	G	NON_BLINK	1610562278.306691	1610562278.3156908	1610562278.7256896	1610562278.9346902	1610562279.0416896	0.31599998474121094	0.10699939727783203	1	0
S01	2021-01-13 18:19:51	179	G	NON_BLINK	1610562279.0416896	1610562279.0516903	1610562279.4616902	1610562279.671697	1610562279.7616963	0.3000061511993408	0.08999943733215332	1	0
S01	2021-01-13 18:19:51	180	G	BLINK	1610562279.7616963	1610562281.7856941	1610562282.3456945	1610562282.555693	1610562282.6666934	0.3209989070892334	0.11100053787231445	1	0
S01	2021-01-13 18:19:51	181	G	NON_BLINK	1610562282.6666934	1610562282.6746929	1610562283.236694	1610562283.458693	1610562284.3066912	1.0699970722198486	0.8479981422424316	1	0
S01	2021-01-13 18:19:51	182	G	NON_BLINK	1610562284.3076918	1610562284.3166916	1610562284.7256925	1610562284.9346912	1610562285.0206926	0.2950000762939453	0.08600139617919922	1	0
S01	2021-01-13 18:19:51	183	G	NON_BLINK	1610562285.0206926	1610562285.0326912	1610562285.4906905	1610562285.700692	1610562285.8276925	0.3370020389556885	0.1270005702972412	1	0
S01	2021-01-13 18:19:51	184	NG	NON_BLINK	1610562285.8276925	1610562285.8356915	1610562286.2466893	1610562286.4560618	1610562287.5060608	1.2593715190887451	1.0499989986419678	1	1
S01	2021-01-13 18:19:51	185	G	BLINK	1610562287.5060608	1610562289.52406	1610562290.0340598	1610562290.2430599	1610562290.3680599	0.3340001106262207	0.125	1	0
S01	2021-01-13 18:19:51	186	NG	NON_BLINK	1610562290.3680599	1610562290.378059	1610562290.7880595	1610562290.9981608	1610562291.0860584	0.29799890518188477	0.08789753913879395	0	0
S01	2021-01-13 18:19:51	187	G	NON_BLINK	1610562291.4970584	1610562291.505058	1610562291.9130576	1610562292.1230574	1610562292.2740571	0.36099958419799805	0.1509997844696045	1	0
S01	2021-01-13 18:19:51	188	G	NON_BLINK	1610562292.2750573	1610562292.2830584	1610562292.7920587	1610562293.0020585	1610562293.6090555	0.8169968128204346	0.606997013092041	1	0
S01	2021-01-13 18:19:51	189	G	NON_BLINK	1610562293.6090555	1610562293.6170578	1610562294.0260572	1610562294.2370577	1610562294.4570558	0.4309985637664795	0.21999812126159668	1	0
S01	2021-01-13 18:19:51	190	G	BLINK	1610562294.4570558	1610562296.4760556	1610562296.8860552	1610562297.0950537	1610562297.2260532	0.3399980068206787	0.13099956512451172	1	0
S01	2021-01-13 18:19:51	191	G	NON_BLINK	1610562297.2260532	1610562297.2350535	1610562297.7450542	1610562297.9560535	1610562298.4910538	0.7459995746612549	0.5350003242492676	1	0
S01	2021-01-13 18:19:51	192	G	NON_BLINK	1610562298.4910538	1610562298.5007074	1610562299.011058	1610562299.2220588	1610562299.4240582	0.41300010681152344	0.20199942588806152	1	0
S01	2021-01-13 18:19:51	193	G	NON_BLINK	1610562299.4240582	1610562299.4320593	1610562300.0430586	1610562300.253059	1610562300.4930582	0.4499995708465576	0.23999929428100586	1	0
S01	2021-01-13 18:19:51	194	G	NON_BLINK	1610562300.4930582	1610562300.502057	1610562301.1110563	1610562301.3190584	1610562301.4610567	0.35000038146972656	0.141998291015625	1	0
S01	2021-01-13 18:19:51	195	G	BLINK	1610562301.4610567	1610562303.4790573	1610562304.0890553	1610562304.2980547	1610562304.5210547	0.43199944496154785	0.22300004959106445	1	0
S01	2021-01-13 18:19:51	196	NG	NON_BLINK	1610562304.5210547	1610562304.5290544	1610562304.9890535	1610562305.199055	1610562305.2890553	0.300001859664917	0.09000039100646973	0	0
S01	2021-01-13 18:19:51	197	G	NON_BLINK	1610562305.7000527	1610562305.7080538	1610562306.1670523	1610562306.3930533	1610562307.215052	1.047999620437622	0.8219985961914062	1	0
S01	2021-01-13 18:19:51	198	G	NON_BLINK	1610562307.215052	1610562307.2240517	1610562307.6830513	1610562307.8920522	1610562308.0890508	0.40599942207336426	0.19699859619140625	1	0
S01	2021-01-13 18:19:51	199	G	NON_BLINK	1610562308.0890508	1610562308.097052	1610562308.5570507	1610562308.7660506	1610562308.9210508	0.3640000820159912	0.1550002098083496	1	0
S01	2021-01-13 18:19:51	200	G	BLINK	1610562308.9210508	1610562310.942051	1610562311.5510488	1610562311.762049	1610562311.921048	0.3699991703033447	0.15899896621704102	1	0


S02	2021-01-27 17:36:07	1	G	NON_BLINK	1611768988.7415981	1611768988.7595973	1611768989.174597	1611768989.3925986	1611768989.694595	0.5199980735778809	0.30199646949768066	1	0
S02	2021-01-27 17:36:07	2	G	NON_BLINK	1611768989.694595	1611768989.704595	1611768990.1665971	1611768990.3775978	1611768990.572595	0.40599775314331055	0.19499707221984863	1	0
S02	2021-01-27 17:36:07	3	G	NON_BLINK	1611768990.572595	1611768990.5825977	1611768990.998596	1611768991.2105947	1611768991.3005948	0.3019988536834717	0.09000015258789062	1	0
S02	2021-01-27 17:36:07	4	NG	NON_BLINK	1611768991.3005948	1611768991.3125951	1611768991.7295952	1611768991.9415944	1611768991.9945962	0.2650010585784912	0.05300188064575195	0	0
S02	2021-01-27 17:36:07	5	G	BLINK	1611768992.4125938	1611768994.4365945	1611768994.9495904	1611768995.1615915	1611768995.2805917	0.33100128173828125	0.11900019645690918	1	0
S02	2021-01-27 17:36:07	6	G	NON_BLINK	1611768995.2805917	1611768995.2905915	1611768995.8015904	1611768996.0155895	1611768996.1035905	0.3020000457763672	0.08800101280212402	1	0
S02	2021-01-27 17:36:07	7	G	NON_BLINK	1611768996.1035905	1611768996.1145902	1611768996.72359	1611768996.9345896	1611768997.0075893	0.2839994430541992	0.07299971580505371	1	0
S02	2021-01-27 17:36:07	8	G	NON_BLINK	1611768997.0075893	1611768997.0175908	1611768997.6285908	1611768997.8395896	1611768997.9855895	0.3569986820220947	0.14599990844726562	1	0
S02	2021-01-27 17:36:07	9	G	NON_BLINK	1611768997.9855895	1611768997.99659	1611768998.5585876	1611768998.770589	1611768998.8995917	0.3410041332244873	0.12900257110595703	1	0
S02	2021-01-27 17:36:07	10	G	BLINK	1611768998.8995917	1611769000.9225876	1611769001.4855874	1611769001.702588	1611769001.8595867	0.37399935722351074	0.1569986343383789	1	0
S02	2021-01-27 17:36:07	11	NG	NON_BLINK	1611769001.8605888	1611769001.8755872	1611769002.3355868	1611769002.549709	1611769003.5995846	1.2639977931976318	1.0498754978179932	1	1
S02	2021-01-27 17:36:07	12	G	NON_BLINK	1611769003.5995846	1611769003.609588	1611769004.172585	1611769004.384585	1611769004.4695842	0.2969992160797119	0.08499932289123535	1	0
S02	2021-01-27 17:36:07	13	G	NON_BLINK	1611769004.4695842	1611769004.4805849	1611769005.092582	1611769005.3035862	1611769005.3985827	0.3060007095336914	0.09499645233154297	1	0
S02	2021-01-27 17:36:07	14	G	NON_BLINK	1611769005.3985827	1611769005.408583	1611769005.9715836	1611769006.184584	1611769006.2515836	0.2799999713897705	0.06699967384338379	1	0
S02	2021-01-27 17:36:07	15	G	BLINK	1611769006.2515836	1611769008.2725801	1611769008.8375819	1611769009.0495813	1611769009.1975813	0.359999418258667	0.14800000190734863	1	0
S02	2021-01-27 17:36:07	16	G	NON_BLINK	1611769009.1975813	1611769009.2065804	1611769009.8165803	1611769010.0275786	1611769010.1365788	0.31999850273132324	0.10900020599365234	1	0
S02	2021-01-27 17:36:07	17	G	NON_BLINK	1611769010.1365788	1611769010.1465786	1611769010.60758	1611769010.8195806	1611769010.9695795	0.36199951171875	0.14999890327453613	1	0
S02	2021-01-27 17:36:07	18	G	NON_BLINK	1611769010.9695795	1611769010.9835794	1611769011.546577	1611769011.7565794	1611769012.0795782	0.533001184463501	0.3229987621307373	1	0
S02	2021-01-27 17:36:07	19	G	NON_BLINK	1611769012.0795782	1611769012.0925775	1611769012.6035774	1611769012.8135774	1611769012.9265788	0.3230013847351074	0.11300134658813477	1	0
S02	2021-01-27 17:36:07	20	G	BLINK	1611769012.9265788	1611769014.948577	1611769015.4615757	1611769015.672576	1611769015.8025756	0.3409998416900635	0.12999963760375977	1	0
S02	2021-01-27 17:36:07	21	G	NON_BLINK	1611769015.8025756	1611769015.8115768	1611769016.2225752	1611769016.438575	1611769016.650574	0.42799878120422363	0.21199893951416016	1	0
S02	2021-01-27 17:36:07	22	G	NON_BLINK	1611769016.650574	1611769016.658575	1611769017.1695733	1611769017.3795743	1611769017.4735734	0.3040001392364502	0.09399914741516113	1	0
S02	2021-01-27 17:36:07	23	G	NON_BLINK	1611769017.4735734	1611769017.483574	1611769018.0000873	1611769018.211572	1611769018.3115737	0.31148648262023926	0.10000181198120117	1	0
S02	2021-01-27 17:36:07	24	G	NON_BLINK	1611769018.3115737	1611769018.3255732	1611769018.8865747	1611769019.0975714	1611769019.165572	0.27899718284606934	0.06800055503845215	1	0
S02	2021-01-27 17:36:07	25	G	BLINK	1611769019.165572	1611769021.1885703	1611769021.7995698	1611769022.0095696	1611769022.1265707	0.32700085639953613	0.11700105667114258	1	0
S02	2021-01-27 17:36:07	26	G	NON_BLINK	1611769022.1265707	1611769022.1355734	1611769022.6485686	1611769022.8585696	1611769022.9435678	0.2949991226196289	0.08499813079833984	1	0
S02	2021-01-27 17:36:07	27	NG	NON_BLINK	1611769022.944569	1611769022.9545696	1611769023.4655685	1611769023.6765685	1611769023.731568	0.26599955558776855	0.054999589920043945	0	0
S02	2021-01-27 17:36:07	28	G	NON_BLINK	1611769024.1425676	1611769024.150569	1611769024.7605689	1611769024.9715672	1611769025.0715666	0.31099772453308105	0.09999942779541016	1	0
S02	2021-01-27 17:36:07	29	G	NON_BLINK	1611769025.0715666	1611769025.081566	1611769025.6425695	1611769025.8545678	1611769026.9045665	1.2619969844818115	1.0499987602233887	0	1
S02	2021-01-27 17:36:07	30	G	BLINK	1611769027.3195684	1611769029.340564	1611769029.7555635	1611769029.9645646	1611769030.105563	0.34999942779541016	0.14099836349487305	1	0
S02	2021-01-27 17:36:07	31	G	NON_BLINK	1611769030.1065636	1611769030.1165638	1611769030.678563	1611769030.8895633	1611769030.9785619	0.29999876022338867	0.08899855613708496	1	0
S02	2021-01-27 17:36:07	32	G	NON_BLINK	1611769030.9795642	1611769030.9875662	1611769031.5515618	1611769031.7635622	1611769031.8425643	0.2910025119781494	0.07900214195251465	1	0
S02	2021-01-27 17:36:07	33	G	NON_BLINK	1611769031.8425643	1611769031.8585625	1611769032.4205623	1611769032.6345627	1611769032.7255623	0.30500006675720215	0.09099960327148438	1	0
S02	2021-01-27 17:36:07	34	NG	NON_BLINK	1611769032.7255623	1611769032.738561	1611769033.1525688	1611769033.3715699	1611769034.4225705	1.2700016498565674	1.0510005950927734	1	1
S02	2021-01-27 17:36:07	35	G	BLINK	1611769034.4225705	1611769036.4465663	1611769036.9569018	1611769037.1665666	1611769037.2785668	0.32166504859924316	0.1120002269744873	1	0
S02	2021-01-27 17:36:07	36	G	NON_BLINK	1611769037.2795663	1611769037.2925644	1611769037.8055644	1611769038.0145652	1611769039.0645645	1.2590000629425049	1.0499992370605469	0	1
S02	2021-01-27 17:36:07	37	G	NON_BLINK	1611769039.4765637	1611769039.485564	1611769039.8975644	1611769040.1095636	1611769040.2345634	0.33699893951416016	0.1249997615814209	1	0
S02	2021-01-27 17:36:07	38	G	NON_BLINK	1611769040.2345634	1611769040.244564	1611769040.655563	1611769040.8655624	1611769041.016562	0.36099886894226074	0.1509995460510254	1	0
S02	2021-01-27 17:36:07	39	NG	NON_BLINK	1611769041.016562	1611769041.0255637	1611769041.4855607	1611769041.6985612	1611769041.834561	0.3490004539489746	0.1359999179840088	0	0
S02	2021-01-27 17:36:07	40	G	BLINK	1611769042.249562	1611769044.270561	1611769044.68256	1611769044.8935616	1611769044.9715593	0.2889993190765381	0.07799768447875977	1	0
S02	2021-01-27 17:36:07	41	G	NON_BLINK	1611769044.9715593	1611769044.9805596	1611769045.391558	1611769045.600559	1611769046.6515574	1.2599995136260986	1.0509984493255615	0	1
S02	2021-01-27 17:36:07	42	NG	NON_BLINK	1611769047.062558	1611769047.0715587	1611769047.6335576	1611769047.845556	1611769048.8955562	1.2619986534118652	1.0500001907348633	1	1
S02	2021-01-27 17:36:07	43	NG	NON_BLINK	1611769048.8955562	1611769048.9065564	1611769049.3665564	1611769049.579558	1611769050.6295557	1.2629992961883545	1.0499978065490723	1	1
S02	2021-01-27 17:36:07	44	G	NON_BLINK	1611769050.6295557	1611769050.6385553	1611769051.2035532	1611769051.412557	1611769051.5915542	0.3880009651184082	0.17899727821350098	1	0
S02	2021-01-27 17:36:07	45	G	BLINK	1611769051.5915542	1611769053.6145508	1611769054.0745542	1611769054.2855518	1611769054.4465518	0.371997594833374	0.16100001335144043	1	0
S02	2021-01-27 17:36:07	46	G	NON_BLINK	1611769054.4475539	1611769054.4585526	1611769055.0205524	1611769055.230552	1611769055.3405516	0.31999921798706055	0.1099996566772461	1	0
S02	2021-01-27 17:36:07	47	G	NON_BLINK	1611769055.3405516	1611769055.3485515	1611769055.8585508	1611769056.068551	1611769056.1895506	0.33099985122680664	0.12099957466125488	1	0
S02	2021-01-27 17:36:07	48	G	NON_BLINK	1611769056.1895506	1611769056.19855	1611769056.6105487	1611769056.8235493	1611769056.9565506	0.34600186347961426	0.13300132751464844	1	0
S02	2021-01-27 17:36:07	49	G	NON_BLINK	1611769056.9565506	1611769056.970253	1611769057.5335493	1611769057.748268	1611769057.874549	0.3409996032714844	0.1262810230255127	1	0
S02	2021-01-27 17:36:07	50	NG	BLINK	1611769057.874549	1611769059.897548	1611769060.3585467	1611769060.5685465	1611769061.619547	1.261000156402588	1.0510003566741943	1	1
S02	2021-01-27 17:36:07	51	G	NON_BLINK	1611769061.619547	1611769061.6295462	1611769062.1945453	1611769062.409546	1611769062.5625448	0.3679995536804199	0.1529989242553711	1	0
S02	2021-01-27 17:36:07	52	G	NON_BLINK	1611769062.5625448	1611769062.571545	1611769063.0315454	1611769063.2435453	1611769063.3405442	0.30899882316589355	0.09699892997741699	1	0
S02	2021-01-27 17:36:07	53	G	NON_BLINK	1611769063.3405442	1611769063.348546	1611769063.7595441	1611769063.9705443	1611769064.1235466	0.3640024662017822	0.15300226211547852	1	0
S02	2021-01-27 17:36:07	54	NG	NON_BLINK	1611769064.1235466	1611769064.1385465	1611769064.6995432	1611769064.9105437	1611769065.021546	0.322002649307251	0.11100220680236816	0	0
S02	2021-01-27 17:36:07	55	G	BLINK	1611769065.434543	1611769067.454542	1611769067.8645418	1611769068.074541	1611769068.2535412	0.38899946212768555	0.1790001392364502	1	0
S02	2021-01-27 17:36:07	56	G	NON_BLINK	1611769068.2535412	1611769068.2645419	1611769068.676541	1611769068.887539	1611769069.00154	0.3249988555908203	0.11400103569030762	1	0
S02	2021-01-27 17:36:07	57	G	NON_BLINK	1611769069.00154	1611769069.0105407	1611769069.5795407	1611769069.7905383	1611769069.960539	0.3809983730316162	0.17000079154968262	1	0
S02	2021-01-27 17:36:07	58	NG	NON_BLINK	1611769069.960539	1611769069.9715397	1611769070.5365398	1611769070.746539	1611769071.7965384	1.2599985599517822	1.0499992370605469	1	1
S02	2021-01-27 17:36:07	59	G	NON_BLINK	1611769071.79754	1611769071.8145382	1611769072.3265388	1611769072.5365396	1611769072.8215392	0.49500036239624023	0.2849996089935303	1	0
S02	2021-01-27 17:36:07	60	G	BLINK	1611769072.8215392	1611769074.844536	1611769075.3045347	1611769075.5145361	1611769075.797536	0.49300122261047363	0.28299975395202637	1	0
S02	2021-01-27 17:36:07	61	G	NON_BLINK	1611769075.797536	1611769075.8055344	1611769076.218533	1611769076.4335346	1611769076.570535	0.3520019054412842	0.13700032234191895	1	0
S02	2021-01-27 17:36:07	62	NG	NON_BLINK	1611769076.570535	1611769076.5815341	1611769076.9935336	1611769077.203535	1611769078.254533	1.2609994411468506	1.0509979724884033	1	1
S02	2021-01-27 17:36:07	63	G	NON_BLINK	1611769078.254533	1611769078.2645361	1611769078.8785334	1611769079.088533	1611769079.2405348	0.3620014190673828	0.15200185775756836	1	0
S02	2021-01-27 17:36:07	64	NG	NON_BLINK	1611769079.241532	1611769079.256532	1611769079.769532	1611769079.980532	1611769081.0305324	1.261000394821167	1.0500004291534424	1	1
S02	2021-01-27 17:36:07	65	G	BLINK	1611769081.0305324	1611769083.05453	1611769083.4645278	1611769083.6745298	1611769083.8425288	0.37800097465515137	0.1679990291595459	1	0
S02	2021-01-27 17:36:07	66	G	NON_BLINK	1611769083.8425288	1611769083.8505273	1611769084.2645283	1611769084.4755275	1611769084.6305285	0.3660001754760742	0.15500092506408691	1	0
S02	2021-01-27 17:36:07	67	NG	NON_BLINK	1611769084.6305285	1611769084.6416752	1611769085.153528	1611769085.3655283	1611769086.415526	1.261997938156128	1.0499975681304932	1	1
S02	2021-01-27 17:36:07	68	NG	NON_BLINK	1611769086.415526	1611769086.425528	1611769087.0365276	1611769087.2475255	1611769088.2985249	1.2619972229003906	1.050999402999878	1	1
S02	2021-01-27 17:36:07	69	G	NON_BLINK	1611769088.2985249	1611769088.3075254	1611769088.7235248	1611769088.9385285	1611769089.157525	0.43400025367736816	0.21899652481079102	1	0
S02	2021-01-27 17:36:07	70	G	BLINK	1611769089.157525	1611769091.1815221	1611769091.7445242	1611769091.9555287	1611769092.1835272	0.43900299072265625	0.2279984951019287	1	0
S02	2021-01-27 17:36:07	71	G	NON_BLINK	1611769092.1835272	1611769092.1945274	1611769092.6565278	1611769092.8675272	1611769092.9715264	0.3149986267089844	0.10399913787841797	1	0
S02	2021-01-27 17:36:07	72	G	NON_BLINK	1611769092.9715264	1611769092.9835272	1611769093.4965258	1611769093.7065244	1611769093.9005268	0.40400099754333496	0.19400238990783691	1	0
S02	2021-01-27 17:36:07	73	G	NON_BLINK	1611769093.901527	1611769093.9115255	1611769094.3245275	1611769094.5345263	1611769094.6985264	0.37399888038635254	0.1640000343322754	1	0
S02	2021-01-27 17:36:07	74	G	NON_BLINK	1611769094.6985264	1611769094.707525	1611769095.218526	1611769095.435526	1611769095.5765245	0.3579986095428467	0.14099860191345215	1	0
S02	2021-01-27 17:36:07	75	G	BLINK	1611769095.5765245	1611769097.5975256	1611769098.1605213	1611769098.3705235	1611769098.5285237	0.36800241470336914	0.15800023078918457	1	0
S02	2021-01-27 17:36:07	76	NG	NON_BLINK	1611769098.5285237	1611769098.540523	1611769099.0515223	1611769099.2625222	1611769100.3125215	1.2609992027282715	1.0499992370605469	1	1
S02	2021-01-27 17:36:07	77	G	NON_BLINK	1611769100.3125215	1611769100.3225205	1611769100.837522	1611769101.0495207	1611769101.20252	0.36499786376953125	0.1529991626739502	1	0
S02	2021-01-27 17:36:07	78	NG	NON_BLINK	1611769101.20252	1611769101.2125213	1611769101.7765205	1611769101.987519	1611769103.03952	1.2629995346069336	1.0520009994506836	1	1
S02	2021-01-27 17:36:07	79	G	NON_BLINK	1611769103.03952	1611769103.0535202	1611769103.5175173	1611769103.730517	1611769103.8725178	0.35500049591064453	0.14200091361999512	1	0
S02	2021-01-27 17:36:07	80	NG	BLINK	1611769103.8725178	1611769105.8995154	1611769106.4605145	1611769106.673515	1611769107.7245145	1.2639999389648438	1.050999402999878	1	1
S02	2021-01-27 17:36:07	81	G	NON_BLINK	1611769107.7245145	1611769107.7355146	1611769108.3025136	1611769108.5135245	1611769108.691524	0.3890104293823242	0.17799949645996094	1	0
S02	2021-01-27 17:36:07	82	G	NON_BLINK	1611769108.691524	1611769108.7085228	1611769109.168523	1611769109.3875244	1611769109.500524	0.3320009708404541	0.11299967765808105	1	0
S02	2021-01-27 17:36:07	83	G	NON_BLINK	1611769109.500524	1611769109.5095234	1611769110.1205237	1611769110.3325233	1611769110.4395232	0.3189995288848877	0.10699987411499023	1	0
S02	2021-01-27 17:36:07	84	NG	NON_BLINK	1611769110.4395232	1611769110.4525235	1611769110.9135232	1611769111.123522	1611769112.1745214	1.260998249053955	1.050999402999878	1	1
S02	2021-01-27 17:36:07	85	G	BLINK	1611769112.1745214	1611769114.1945255	1611769114.6055255	1611769114.8175244	1611769114.964527	0.35900139808654785	0.1470024585723877	1	0
S02	2021-01-27 17:36:07	86	NG	NON_BLINK	1611769114.964527	1611769114.9735265	1611769115.3855247	1611769115.596527	1611769116.6475248	1.2620000839233398	1.0509977340698242	1	1
S02	2021-01-27 17:36:07	87	G	NON_BLINK	1611769116.6475248	1611769116.6585252	1611769117.2695243	1611769117.4805224	1611769117.694523	0.42499876022338867	0.21400070190429688	1	0
S02	2021-01-27 17:36:07	88	G	NON_BLINK	1611769117.694523	1611769117.7040946	1611769118.3146305	1611769118.5246282	1611769118.7036293	0.38899874687194824	0.1790010929107666	1	0
S02	2021-01-27 17:36:07	89	NG	NON_BLINK	1611769118.7036293	1611769118.7156289	1611769119.326629	1611769119.5416286	1611769120.5916286	1.2649996280670166	1.0499999523162842	1	1
S02	2021-01-27 17:36:07	90	NG	BLINK	1611769120.5926273	1611769122.618626	1611769123.1846247	1611769123.4016242	1611769124.452626	1.2680013179779053	1.051001787185669	1	1
S02	2021-01-27 17:36:07	91	G	NON_BLINK	1611769124.452626	1611769124.4646242	1611769124.9296246	1611769125.1436229	1611769125.2886226	0.35899806022644043	0.14499974250793457	1	0
S02	2021-01-27 17:36:07	92	G	NON_BLINK	1611769125.2886226	1611769125.3006248	1611769125.8156228	1611769126.027624	1611769126.1816213	0.3659985065460205	0.15399742126464844	1	0
S02	2021-01-27 17:36:07	93	G	NON_BLINK	1611769126.1816213	1611769126.1936243	1611769126.6316247	1611769126.8426218	1611769126.9596214	0.32799673080444336	0.11699962615966797	1	0
S02	2021-01-27 17:36:07	94	NG	NON_BLINK	1611769126.960622	1611769126.9726224	1611769127.533622	1611769127.7456234	1611769128.7956207	1.2619986534118652	1.049997329711914	1	1
S02	2021-01-27 17:36:07	95	G	BLINK	1611769128.7956207	1611769130.81862	1611769131.2796192	1611769131.4927907	1611769131.5786185	0.2989993095397949	0.08582782745361328	1	0
S02	2021-01-27 17:36:07	96	G	NON_BLINK	1611769131.5786185	1611769131.5886192	1611769132.1036174	1611769132.3156173	1611769132.4006171	0.2969996929168701	0.08499979972839355	1	0
S02	2021-01-27 17:36:07	97	NG	NON_BLINK	1611769132.4006171	1611769132.413618	1611769132.9296176	1611769133.1406183	1611769134.1916165	1.2619988918304443	1.0509982109069824	1	1
S02	2021-01-27 17:36:07	98	G	NON_BLINK	1611769134.1916165	1611769134.2056158	1611769134.7176151	1611769134.9276166	1611769135.0906155	0.3730003833770752	0.16299891471862793	1	0
S02	2021-01-27 17:36:07	99	NG	NON_BLINK	1611769135.0906155	1611769135.1016157	1611769135.6636164	1611769135.873615	1611769136.923613	1.2599966526031494	1.0499980449676514	1	1
S02	2021-01-27 17:36:07	100	G	BLINK	1611769136.923613	1611769138.9436133	1611769139.5576117	1611769139.7686121	1611769139.909613	0.3520011901855469	0.14100074768066406	1	0
S02	2021-01-27 17:36:07	101	G	NON_BLINK	1611769139.909613	1611769139.921611	1611769140.432611	1611769140.6446126	1611769140.7926116	0.3600006103515625	0.14799904823303223	1	0
S02	2021-01-27 17:36:07	102	NG	NON_BLINK	1611769140.7926116	1611769140.8056118	1611769141.4166124	1611769141.6276114	1611769142.6776102	1.2609977722167969	1.0499987602233887	1	1
S02	2021-01-27 17:36:07	103	G	NON_BLINK	1611769142.6776102	1611769142.6916099	1611769143.3026075	1611769143.5146074	1611769143.7536182	0.45101070404052734	0.23901081085205078	1	0
S02	2021-01-27 17:36:07	104	G	NON_BLINK	1611769143.7536182	1611769143.7626154	1611769144.1726165	1611769144.3836164	1611769144.6426167	0.4700002670288086	0.259000301361084	1	0
S02	2021-01-27 17:36:07	105	G	BLINK	1611769144.6426167	1611769146.6646137	1611769147.076614	1611769147.292614	1611769147.431613	0.3549990653991699	0.13899898529052734	1	0
S02	2021-01-27 17:36:07	106	G	NON_BLINK	1611769147.4326146	1611769147.441614	1611769148.0036142	1611769148.2196138	1611769148.3756137	0.37199950218200684	0.15599989891052246	1	0
S02	2021-01-27 17:36:07	107	G	NON_BLINK	1611769148.3756137	1611769148.3866117	1611769148.8976126	1611769149.1096115	1611769149.2736113	0.37599873542785645	0.1639997959136963	1	0
S02	2021-01-27 17:36:07	108	G	NON_BLINK	1611769149.2746148	1611769149.2876127	1611769149.8516123	1611769150.0676134	1611769150.247611	0.3959987163543701	0.17999768257141113	1	0
S02	2021-01-27 17:36:07	109	G	NON_BLINK	1611769150.247611	1611769150.2576118	1611769150.7716115	1611769150.9836118	1611769151.1606112	0.38899970054626465	0.17699933052062988	1	0
S02	2021-01-27 17:36:07	110	G	BLINK	1611769151.1616113	1611769153.1836073	1611769153.5946095	1611769153.807609	1611769153.9676101	0.3730006217956543	0.16000103950500488	1	0
S02	2021-01-27 17:36:07	111	G	NON_BLINK	1611769153.9676101	1611769153.9786093	1611769154.5406084	1611769154.7586071	1611769154.8906088	0.35000038146972656	0.13200163841247559	1	0
S02	2021-01-27 17:36:07	112	G	NON_BLINK	1611769154.8906088	1611769154.9066076	1611769155.4686086	1611769155.6816068	1611769155.8236067	0.3549981117248535	0.1419999599456787	1	0
S02	2021-01-27 17:36:07	113	G	NON_BLINK	1611769155.8236067	1611769155.8356068	1611769156.4466076	1611769156.6586068	1611769156.80261	0.3560023307800293	0.14400315284729004	1	0
S02	2021-01-27 17:36:07	114	G	NON_BLINK	1611769156.80261	1611769156.8146048	1611769157.3766065	1611769157.5876064	1611769157.796605	0.4199986457824707	0.2089986801147461	1	0
S02	2021-01-27 17:36:07	115	NG	BLINK	1611769157.796605	1611769159.8266034	1611769160.2406044	1611769160.4531717	1611769161.5036085	1.2630040645599365	1.0504367351531982	1	1
S02	2021-01-27 17:36:07	116	G	NON_BLINK	1611769161.5036085	1611769161.5146086	1611769162.0266101	1611769162.2406104	1611769162.4246087	0.397998571395874	0.18399834632873535	1	0
S02	2021-01-27 17:36:07	117	G	NON_BLINK	1611769162.4246087	1611769162.4366121	1611769162.8476093	1611769163.0586092	1611769163.1916091	0.34399986267089844	0.13299989700317383	1	0
S02	2021-01-27 17:36:07	118	G	NON_BLINK	1611769163.1916091	1611769163.202608	1611769163.7646096	1611769163.9786088	1611769164.0896082	0.3249986171722412	0.11099934577941895	1	0
S02	2021-01-27 17:36:07	119	NG	NON_BLINK	1611769164.0896082	1611769164.1076086	1611769164.5726082	1611769164.7846072	1611769165.8346066	1.2619984149932861	1.049999475479126	1	1
S02	2021-01-27 17:36:07	120	G	BLINK	1611769165.8346066	1611769167.8656046	1611769168.3796039	1611769168.5976048	1611769168.757606	0.3780021667480469	0.16000127792358398	1	0
S02	2021-01-27 17:36:07	121	G	NON_BLINK	1611769168.757606	1611769168.7686036	1611769169.1796043	1611769169.3946037	1611769169.5256047	0.34600043296813965	0.13100099563598633	1	0
S02	2021-01-27 17:36:07	122	G	NON_BLINK	1611769169.5256047	1611769169.5366042	1611769170.1006033	1611769170.313604	1611769170.4036028	0.30299949645996094	0.08999872207641602	1	0
S02	2021-01-27 17:36:07	123	G	NON_BLINK	1611769170.4036028	1611769170.415604	1611769170.8786016	1611769171.0906014	1611769171.2566028	0.37800121307373047	0.1660013198852539	1	0
S02	2021-01-27 17:36:07	124	G	NON_BLINK	1611769171.2566028	1611769171.265604	1611769171.8286023	1611769172.0406032	1611769172.229602	0.4009997844696045	0.18899893760681152	1	0
S02	2021-01-27 17:36:07	125	NG	BLINK	1611769172.230602	1611769174.2535985	1611769174.7636003	1611769174.976601	1611769176.0265996	1.2629992961883545	1.0499987602233887	1	1
S02	2021-01-27 17:36:07	126	NG	NON_BLINK	1611769176.0265996	1611769176.0386002	1611769176.5026007	1611769176.7145984	1611769177.7645965	1.261995792388916	1.0499980449676514	1	1
S02	2021-01-27 17:36:07	127	G	NON_BLINK	1611769177.7645965	1611769177.774598	1611769178.3875961	1611769178.6035974	1611769178.730597	0.3430008888244629	0.1269996166229248	1	0
S02	2021-01-27 17:36:07	128	G	NON_BLINK	1611769178.730597	1611769178.7425969	1611769179.2045956	1611769179.4185948	1611769179.537594	0.33299851417541504	0.11899924278259277	1	0
S02	2021-01-27 17:36:07	129	NG	NON_BLINK	1611769179.537594	1611769179.5515969	1611769180.0625954	1611769180.273595	1611769181.3235943	1.2609989643096924	1.0499992370605469	1	1
S02	2021-01-27 17:36:07	130	NG	BLINK	1611769181.3235943	1611769183.344592	1611769183.9605942	1611769184.1725924	1611769185.2235897	1.2629954814910889	1.050997257232666	1	1
S02	2021-01-27 17:36:07	131	G	NON_BLINK	1611769185.2235897	1611769185.2475913	1611769185.659591	1611769185.8755894	1611769186.0565963	0.3970053195953369	0.18100690841674805	1	0
S02	2021-01-27 17:36:07	132	NG	NON_BLINK	1611769186.05759	1611769186.06759	1611769186.5305896	1611769186.7415967	1611769187.7915957	1.2610061168670654	1.0499989986419678	1	1
S02	2021-01-27 17:36:07	133	G	NON_BLINK	1611769187.7915957	1611769187.8005962	1611769188.211597	1611769188.4275947	1611769188.606595	0.39499807357788086	0.1790003776550293	1	0
S02	2021-01-27 17:36:07	134	G	NON_BLINK	1611769188.606595	1611769188.6175947	1611769189.1335933	1611769189.3445807	1611769189.4595807	0.3259873390197754	0.11500000953674316	1	0
S02	2021-01-27 17:36:07	135	G	BLINK	1611769189.4595807	1611769191.4825795	1611769192.0445783	1611769192.2565768	1611769192.4865782	0.4419999122619629	0.23000144958496094	1	0
S02	2021-01-27 17:36:07	136	NG	NON_BLINK	1611769192.4865782	1611769192.4975774	1611769193.0605774	1611769193.272575	1611769194.3225765	1.2619991302490234	1.050001621246338	1	1
S02	2021-01-27 17:36:07	137	G	NON_BLINK	1611769194.3225765	1611769194.3335738	1611769194.9485767	1611769195.1615736	1611769195.3375754	0.38899874687194824	0.17600178718566895	1	0
S02	2021-01-27 17:36:07	138	G	NON_BLINK	1611769195.3375754	1611769195.3485744	1611769195.8095748	1611769196.0245762	1611769196.1655743	0.3559994697570801	0.14099812507629395	1	0
S02	2021-01-27 17:36:07	139	G	NON_BLINK	1611769196.1655743	1611769196.1765723	1611769196.7415755	1611769196.9565742	1611769197.113574	0.37199854850769043	0.15699982643127441	1	0
S02	2021-01-27 17:36:07	140	G	BLINK	1611769197.1145735	1611769199.1385734	1611769199.6505723	1611769199.8615708	1611769200.1205719	0.4699995517730713	0.2590010166168213	1	0
S02	2021-01-27 17:36:07	141	G	NON_BLINK	1611769200.1205719	1611769200.1315715	1611769200.64657	1611769200.8615708	1611769200.973571	0.32700109481811523	0.1120002269744873	1	0
S02	2021-01-27 17:36:07	142	G	NON_BLINK	1611769200.973571	1611769200.98657	1611769201.5525696	1611769201.768569	1611769201.877571	0.32500147819519043	0.10900211334228516	1	0
S02	2021-01-27 17:36:07	143	G	NON_BLINK	1611769201.877571	1611769201.892569	1611769202.4635692	1611769202.6785676	1611769202.7585695	0.2950003147125244	0.0800018310546875	1	0
S02	2021-01-27 17:36:07	144	G	NON_BLINK	1611769202.7595701	1611769202.7775686	1611769203.188567	1611769203.40304	1611769203.5835807	0.39501380920410156	0.1805408000946045	1	0
S02	2021-01-27 17:36:07	145	G	BLINK	1611769203.5835807	1611769205.6095796	1611769206.176579	1611769206.3935785	1611769206.5065777	0.3299987316131592	0.11299920082092285	1	0
S02	2021-01-27 17:36:07	146	G	NON_BLINK	1611769206.5075788	1611769206.5225787	1611769207.003578	1611769207.2145782	1611769207.3475776	0.34399962425231934	0.13299942016601562	1	0
S02	2021-01-27 17:36:07	147	G	NON_BLINK	1611769207.3475776	1611769207.3585787	1611769207.8865774	1611769208.104722	1611769208.2255762	0.33899879455566406	0.12085413932800293	1	0
S02	2021-01-27 17:36:07	148	G	NON_BLINK	1611769208.2255762	1611769208.240576	1611769208.7535744	1611769208.9685764	1611769209.1445765	0.39100217819213867	0.17600011825561523	1	0
S02	2021-01-27 17:36:07	149	G	NON_BLINK	1611769209.1445765	1611769209.1615753	1611769209.7265751	1611769209.9395766	1611769210.0575762	0.33100104331970215	0.11799955368041992	1	0
S02	2021-01-27 17:36:07	150	G	BLINK	1611769210.0575762	1611769212.088573	1611769212.5005734	1611769212.7175744	1611769212.9285746	0.42800116539001465	0.2110002040863037	1	0
S02	2021-01-27 17:36:07	151	G	NON_BLINK	1611769212.9295738	1611769212.9425738	1611769213.5605714	1611769213.7805746	1611769213.9275723	0.3670008182525635	0.14699769020080566	1	0
S02	2021-01-27 17:36:07	152	G	NON_BLINK	1611769213.9275723	1611769213.9395723	1611769214.4085724	1611769214.6260939	1611769214.791094	0.3825216293334961	0.16500020027160645	1	0
S02	2021-01-27 17:36:07	153	G	NON_BLINK	1611769214.791094	1611769214.8080914	1611769215.2711017	1611769215.486102	1611769215.629103	0.3580012321472168	0.14300084114074707	1	0
S02	2021-01-27 17:36:07	154	G	NON_BLINK	1611769215.629103	1611769215.6461015	1611769216.1611001	1611769216.3781006	1611769216.512099	0.3509988784790039	0.13399839401245117	1	0
S02	2021-01-27 17:36:07	155	G	BLINK	1611769216.512099	1611769218.5384977	1611769219.1504984	1611769219.3634977	1611769219.4734974	0.3229990005493164	0.1099996566772461	1	0
S02	2021-01-27 17:36:07	156	G	NON_BLINK	1611769219.4734974	1611769219.484498	1611769219.9014974	1611769220.1154976	1611769220.2664967	0.36499929428100586	0.1509990692138672	1	0
S02	2021-01-27 17:36:07	157	G	NON_BLINK	1611769220.2664967	1611769220.284498	1611769220.848497	1611769221.063497	1611769221.1944947	0.34599781036376953	0.1309976577758789	1	0
S02	2021-01-27 17:36:07	158	NG	NON_BLINK	1611769221.1944947	1611769221.206496	1611769221.672494	1611769221.885495	1611769222.9354944	1.26300048828125	1.049999475479126	1	1
S02	2021-01-27 17:36:07	159	G	NON_BLINK	1611769222.9364953	1611769222.9494946	1611769223.4626703	1611769223.6739006	1611769223.8509014	0.3882310390472412	0.1770007610321045	1	0
S02	2021-01-27 17:36:07	160	G	BLINK	1611769223.8509014	1611769225.8759007	1611769226.3919008	1611769226.6059003	1611769226.7559018	0.3640010356903076	0.15000152587890625	1	0
S02	2021-01-27 17:36:07	161	G	NON_BLINK	1611769226.7559018	1611769226.7678986	1611769227.1798987	1611769227.392898	1611769227.5588999	0.3790011405944824	0.1660017967224121	1	0
S02	2021-01-27 17:36:07	162	G	NON_BLINK	1611769227.5588999	1611769227.5728989	1611769228.083898	1611769228.301897	1611769228.4168983	0.33300018310546875	0.11500120162963867	1	0
S02	2021-01-27 17:36:07	163	G	NON_BLINK	1611769228.4168983	1611769228.4278994	1611769229.0418975	1611769229.2568984	1611769229.3508995	0.3090019226074219	0.09400105476379395	1	0
S02	2021-01-27 17:36:07	164	G	NON_BLINK	1611769229.3508995	1611769229.3618963	1611769229.8288965	1611769230.0448978	1611769230.2388968	0.4100003242492676	0.1939990520477295	1	0
S02	2021-01-27 17:36:07	165	G	BLINK	1611769230.2388968	1611769232.2608976	1611769232.781992	1611769232.9968948	1611769233.1148953	0.3329033851623535	0.11800050735473633	1	0
S02	2021-01-27 17:36:07	166	G	NON_BLINK	1611769233.1148953	1611769233.1268928	1611769233.540895	1611769233.7538955	1611769233.846894	0.3059990406036377	0.09299850463867188	1	0
S02	2021-01-27 17:36:07	167	G	NON_BLINK	1611769233.846894	1611769233.8578944	1611769234.270894	1611769234.4828932	1611769234.715896	0.44500184059143066	0.2330026626586914	1	0
S02	2021-01-27 17:36:07	168	G	NON_BLINK	1611769234.715896	1611769234.7268949	1611769235.1448932	1611769235.3598914	1611769235.5288918	0.3839986324310303	0.16900038719177246	1	0
S02	2021-01-27 17:36:07	169	G	NON_BLINK	1611769235.5288918	1611769235.5408938	1611769235.9558935	1611769236.1738932	1611769236.3468912	0.39099764823913574	0.17299795150756836	1	0
S02	2021-01-27 17:36:07	170	NG	BLINK	1611769236.3468912	1611769238.3778949	1611769238.88989	1611769239.1038897	1611769240.1538894	1.2639994621276855	1.049999713897705	1	1
S02	2021-01-27 17:36:07	171	G	NON_BLINK	1611769240.1538894	1611769240.166888	1611769240.6318908	1611769240.8468869	1611769241.049889	0.4179983139038086	0.2030022144317627	1	0
S02	2021-01-27 17:36:07	172	G	NON_BLINK	1611769241.049889	1611769241.0648868	1611769241.6308875	1611769241.843886	1611769241.983888	0.3530004024505615	0.14000201225280762	1	0
S02	2021-01-27 17:36:07	173	G	NON_BLINK	1611769241.983888	1611769241.999888	1611769242.6128864	1611769242.8298867	1611769242.9068875	0.29400110244750977	0.07700085639953613	1	0
S02	2021-01-27 17:36:07	174	G	NON_BLINK	1611769242.9068875	1611769242.9198859	1611769243.4308846	1611769243.6438868	1611769243.879887	0.4490025043487549	0.23600029945373535	1	0
S02	2021-01-27 17:36:07	175	NG	BLINK	1611769243.879887	1611769245.907884	1611769246.370511	1611769246.582895	1611769247.6328957	1.2623846530914307	1.0500006675720215	1	1
S02	2021-01-27 17:36:07	176	G	NON_BLINK	1611769247.633895	1611769247.6468952	1611769248.061894	1611769248.2768931	1611769248.411895	0.35000109672546387	0.13500189781188965	1	0
S02	2021-01-27 17:36:07	177	G	NON_BLINK	1611769248.411895	1611769248.4248948	1611769248.8868923	1611769249.1008945	1611769249.209892	0.3229997158050537	0.10899758338928223	1	0
S02	2021-01-27 17:36:07	178	NG	NON_BLINK	1611769249.209892	1611769249.2208917	1611769249.6338937	1611769249.8468935	1611769250.8978915	1.2639977931976318	1.0509979724884033	1	1
S02	2021-01-27 17:36:07	179	NG	NON_BLINK	1611769250.8978915	1611769250.907892	1611769251.4218936	1611769251.6438909	1611769252.6948917	1.2729980945587158	1.0510008335113525	1	1
S02	2021-01-27 17:36:07	180	G	BLINK	1611769252.6948917	1611769254.7338893	1611769255.1968892	1611769255.409891	1611769256.4598882	1.2629990577697754	1.049997329711914	0	1
S02	2021-01-27 17:36:07	181	NG	NON_BLINK	1611769256.8738892	1611769256.8908887	1611769257.4038875	1611769257.6178875	1611769258.6688862	1.2649986743927002	1.0509986877441406	1	1
S02	2021-01-27 17:36:07	182	G	NON_BLINK	1611769258.6688862	1611769258.688886	1611769259.2108872	1611769259.4254344	1611769259.6138945	0.40300726890563965	0.188460111618042	1	0
S02	2021-01-27 17:36:07	183	G	NON_BLINK	1611769259.6138945	1611769259.628893	1611769260.0898926	1611769260.315892	1611769260.466893	0.3770003318786621	0.1510009765625	1	0
S02	2021-01-27 17:36:07	184	G	NON_BLINK	1611769260.466893	1611769260.481891	1611769261.043893	1611769261.2668917	1611769261.3758936	0.3320004940032959	0.10900187492370605	1	0
S02	2021-01-27 17:36:07	185	G	BLINK	1611769261.3758936	1611769263.4098916	1611769263.9228883	1611769264.1348898	1611769264.2618904	0.3390021324157715	0.1270005702972412	1	0
S02	2021-01-27 17:36:07	186	G	NON_BLINK	1611769264.2618904	1611769264.2768896	1611769264.7908888	1611769265.0038893	1611769265.0948882	0.3039994239807129	0.09099888801574707	1	0
S02	2021-01-27 17:36:07	187	G	NON_BLINK	1611769265.0948882	1611769265.1068919	1611769265.724888	1611769265.9388893	1611769266.0188878	0.29399967193603516	0.07999849319458008	1	0
S02	2021-01-27 17:36:07	188	G	NON_BLINK	1611769266.0188878	1611769266.0348868	1611769266.600886	1611769266.813888	1611769266.915887	0.3150010108947754	0.10199904441833496	1	0
S02	2021-01-27 17:36:07	189	NG	NON_BLINK	1611769266.915887	1611769266.9278886	1611769267.44189	1611769267.6558888	1611769267.7448885	0.30299854278564453	0.08899974822998047	0	0
S02	2021-01-27 17:36:07	190	G	BLINK	1611769268.1588888	1611769270.1828833	1611769270.6928844	1611769270.9058843	1611769271.0418832	0.3489987850189209	0.13599896430969238	1	0
S02	2021-01-27 17:36:07	191	G	NON_BLINK	1611769271.0428846	1611769271.052883	1611769271.6158817	1611769271.826884	1611769272.5218825	0.9060008525848389	0.6949985027313232	1	0
S02	2021-01-27 17:36:07	192	G	NON_BLINK	1611769272.5228834	1611769272.5328832	1611769273.1498835	1611769273.3678818	1611769273.5208824	0.3709988594055176	0.1530005931854248	1	0
S02	2021-01-27 17:36:07	193	G	NON_BLINK	1611769273.5208824	1611769273.5305057	1611769274.0420244	1611769274.258026	1611769274.409026	0.3670015335083008	0.1510000228881836	1	0
S02	2021-01-27 17:36:07	194	G	NON_BLINK	1611769274.409026	1611769274.4220257	1611769275.0350258	1611769275.2460256	1611769275.403026	0.3680002689361572	0.15700054168701172	1	0
S02	2021-01-27 17:36:07	195	G	BLINK	1611769275.403026	1611769277.426023	1611769277.938022	1611769278.153022	1611769278.2890232	0.3510012626647949	0.1360011100769043	1	0
S02	2021-01-27 17:36:07	196	G	NON_BLINK	1611769278.2890232	1611769278.3050234	1611769278.770023	1611769278.9840226	1611769279.0980225	0.3279993534088135	0.11399984359741211	1	0
S02	2021-01-27 17:36:07	197	G	NON_BLINK	1611769279.0980225	1611769279.109023	1611769279.6720245	1611769279.8910224	1611769280.01002	0.3379955291748047	0.11899757385253906	1	0
S02	2021-01-27 17:36:07	198	G	NON_BLINK	1611769280.01002	1611769280.0210223	1611769280.5370212	1611769280.752023	1611769280.8740208	0.33699965476989746	0.12199783325195312	1	0
S02	2021-01-27 17:36:07	199	G	NON_BLINK	1611769280.8740208	1611769280.884021	1611769281.3990183	1611769281.6100302	1611769281.7820308	0.3830125331878662	0.17200064659118652	1	0
S02	2021-01-27 17:36:07	200	G	BLINK	1611769281.7820308	1611769283.8140304	1611769284.2770267	1611769284.4890275	1611769284.6370277	0.3600010871887207	0.14800024032592773	1	0


s03	2021-01-27 23:13:20	1	G	NON_BLINK	1611789222.3607924	1611789222.373792	1611789222.832792	1611789223.0457914	1611789223.87079	1.0379979610443115	0.8249986171722412	1	0
s03	2021-01-27 23:13:20	2	NG	NON_BLINK	1611789223.87079	1611789223.8817942	1611789224.2917905	1611789224.501789	1611789225.5517883	1.259997844696045	1.0499992370605469	1	1
s03	2021-01-27 23:13:20	3	G	NON_BLINK	1611789225.5517883	1611789225.56079	1611789226.1217902	1611789226.3357885	1611789226.8557878	0.7339975833892822	0.5199992656707764	1	0
s03	2021-01-27 23:13:20	4	G	NON_BLINK	1611789226.8557878	1611789226.8647878	1611789227.376789	1611789227.5907872	1611789228.381788	1.0049989223480225	0.7910008430480957	1	0
s03	2021-01-27 23:13:20	5	G	BLINK	1611789228.381788	1611789230.4017866	1611789230.8127847	1611789231.0227835	1611789231.7377827	0.9249980449676514	0.7149991989135742	1	0
s03	2021-01-27 23:13:20	6	NG	NON_BLINK	1611789231.7377827	1611789231.7457836	1611789232.3557827	1611789232.5647821	1611789233.6147811	1.2589983940124512	1.0499989986419678	1	1
s03	2021-01-27 23:13:20	7	NG	NON_BLINK	1611789233.6147811	1611789233.6227827	1611789234.1327815	1611789234.3407822	1611789235.3907795	1.257997989654541	1.049997329711914	1	1
s03	2021-01-27 23:13:20	8	NG	NON_BLINK	1611789235.3907795	1611789235.4017818	1611789235.861781	1611789236.070779	1611789237.120779	1.258998155593872	1.0499999523162842	1	1
s03	2021-01-27 23:13:20	9	NG	NON_BLINK	1611789237.120779	1611789237.128779	1611789237.6387787	1611789237.850778	1611789238.9007764	1.2619976997375488	1.0499982833862305	1	1
s03	2021-01-27 23:13:20	10	NG	BLINK	1611789238.9007764	1611789240.9187748	1611789241.3777757	1611789241.5887754	1611789242.638774	1.260998249053955	1.0499985218048096	1	1
s03	2021-01-27 23:13:20	11	G	NON_BLINK	1611789242.6397731	1611789242.6467736	1611789243.1153398	1611789243.3247745	1611789244.0207732	0.9054334163665771	0.6959986686706543	1	0
s03	2021-01-27 23:13:20	12	G	NON_BLINK	1611789244.0207732	1611789244.0297735	1611789244.590773	1611789244.801771	1611789245.4337716	0.8429985046386719	0.6320006847381592	1	0
s03	2021-01-27 23:13:20	13	NG	NON_BLINK	1611789245.4337716	1611789245.442772	1611789245.9027708	1611789246.1127703	1611789247.1627693	1.2599985599517822	1.0499989986419678	1	1
s03	2021-01-27 23:13:20	14	G	NON_BLINK	1611789247.1627693	1611789247.1717703	1611789247.5837698	1611789247.7917705	1611789248.3697686	0.7859988212585449	0.577998161315918	1	0
s03	2021-01-27 23:13:20	15	G	BLINK	1611789248.3697686	1611789250.3927662	1611789250.8037696	1611789251.0127676	1611789251.6047652	0.8009955883026123	0.5919976234436035	1	0
s03	2021-01-27 23:13:20	16	NG	NON_BLINK	1611789251.6047652	1611789251.6127663	1611789252.072765	1611789252.2817652	1611789253.3317645	1.2589993476867676	1.0499992370605469	1	1
s03	2021-01-27 23:13:20	17	G	NON_BLINK	1611789253.3317645	1611789253.3467653	1611789253.756763	1611789253.971765	1611789254.4197643	0.663001298904419	0.4479992389678955	1	0
s03	2021-01-27 23:13:20	18	G	NON_BLINK	1611789254.4197643	1611789254.4287624	1611789254.9907637	1611789255.2007635	1611789256.0807605	1.0899968147277832	0.8799970149993896	1	0
s03	2021-01-27 23:13:20	19	G	NON_BLINK	1611789256.0807605	1611789256.0917625	1611789256.5507636	1611789256.7597618	1611789257.5197597	0.9689960479736328	0.7599978446960449	1	0
s03	2021-01-27 23:13:20	20	G	BLINK	1611789257.5197597	1611789259.536758	1611789260.1467574	1611789260.357758	1611789260.8967576	0.7500002384185791	0.5389995574951172	1	0
s03	2021-01-27 23:13:20	21	G	NON_BLINK	1611789260.8967576	1611789260.9047577	1611789261.514757	1611789261.7307575	1611789262.330755	0.8159980773925781	0.5999975204467773	1	0
s03	2021-01-27 23:13:20	22	G	NON_BLINK	1611789262.331757	1611789262.3392644	1611789262.8987565	1611789263.1087568	1611789263.6807542	0.7819976806640625	0.5719974040985107	1	0
s03	2021-01-27 23:13:20	23	G	NON_BLINK	1611789263.6807542	1611789263.6897554	1611789264.2007542	1611789264.4097533	1611789265.156753	0.9559988975524902	0.7469997406005859	1	0
s03	2021-01-27 23:13:20	24	G	NON_BLINK	1611789265.1577556	1611789265.1667557	1611789265.6277523	1611789265.8367534	1611789266.3397515	0.7119991779327393	0.5029981136322021	1	0
s03	2021-01-27 23:13:20	25	NG	BLINK	1611789266.3407528	1611789268.357751	1611789268.9177504	1611789269.1277504	1611789270.1777482	1.259997844696045	1.0499978065490723	1	1
s03	2021-01-27 23:13:20	26	NG	NON_BLINK	1611789270.1777482	1611789270.1857507	1611789270.695749	1611789270.904749	1611789271.954747	1.258997917175293	1.0499980449676514	1	1
s03	2021-01-27 23:13:20	27	G	NON_BLINK	1611789271.9557467	1611789271.9637468	1611789272.4727468	1611789272.6817477	1611789273.2987452	0.8259983062744141	0.616997480392456	1	0
s03	2021-01-27 23:13:20	28	G	NON_BLINK	1611789273.2987452	1611789273.3067453	1611789273.817746	1611789274.026746	1611789274.6337457	0.8159997463226318	0.6069996356964111	1	0
s03	2021-01-27 23:13:20	29	G	NON_BLINK	1611789274.6337457	1611789274.6417477	1611789275.100745	1611789275.3137448	1611789275.7727435	0.6719985008239746	0.4589986801147461	1	0
s03	2021-01-27 23:13:20	30	G	BLINK	1611789275.7727435	1611789277.7917414	1611789278.4027424	1611789278.6127408	1611789279.18474	0.7819976806640625	0.5719993114471436	1	0
s03	2021-01-27 23:13:20	31	G	NON_BLINK	1611789279.18474	1611789279.1927392	1611789279.7537436	1611789279.9627473	1611789280.4277396	0.6739959716796875	0.4649922847747803	1	0
s03	2021-01-27 23:13:20	32	G	NON_BLINK	1611789280.428739	1611789280.4357414	1611789280.9467406	1611789281.1557403	1611789281.5827398	0.6359992027282715	0.426999568939209	1	0
s03	2021-01-27 23:13:20	33	G	NON_BLINK	1611789281.5827398	1611789281.5927389	1611789282.0027392	1611789282.2117388	1611789283.1937368	1.19099760055542	0.9819979667663574	1	0
s03	2021-01-27 23:13:20	34	G	NON_BLINK	1611789283.1937368	1611789283.2067404	1611789283.8197362	1611789284.0277364	1611789284.7127347	0.892998456954956	0.6849982738494873	1	0
s03	2021-01-27 23:13:20	35	G	BLINK	1611789284.7127347	1611789286.733734	1611789287.2487333	1611789287.4577343	1611789288.0297337	0.7810003757476807	0.5719993114471436	1	0
s03	2021-01-27 23:13:20	36	G	NON_BLINK	1611789288.0297337	1611789288.0387347	1611789288.6007385	1611789288.8107328	1611789289.358731	0.7579925060272217	0.5479981899261475	1	0
s03	2021-01-27 23:13:20	37	NG	NON_BLINK	1611789289.358731	1611789289.3667333	1611789289.774731	1611789289.98473	1611789291.0347307	1.2599997520446777	1.0500006675720215	1	1
s03	2021-01-27 23:13:20	38	NG	NON_BLINK	1611789291.0347307	1611789291.0437298	1611789291.60373	1611789291.8127308	1611789292.8627276	1.2589976787567139	1.0499968528747559	1	1
s03	2021-01-27 23:13:20	39	G	NON_BLINK	1611789292.8627276	1611789292.872729	1611789293.293728	1611789293.5047286	1611789294.1967268	0.902998685836792	0.6919982433319092	1	0
s03	2021-01-27 23:13:20	40	G	BLINK	1611789294.1967268	1611789296.2137263	1611789296.6237242	1611789296.8327253	1611789297.4867253	0.8630011081695557	0.6540000438690186	1	0
s03	2021-01-27 23:13:20	41	G	NON_BLINK	1611789297.4867253	1611789297.4947257	1611789298.0057251	1611789298.2147233	1611789298.8057225	0.7999973297119141	0.5909991264343262	1	0
s03	2021-01-27 23:13:20	42	G	NON_BLINK	1611789298.8057225	1611789298.8147233	1611789299.4287248	1611789299.6387236	1611789300.2167213	0.7879965305328369	0.5779976844787598	1	0
s03	2021-01-27 23:13:20	43	G	NON_BLINK	1611789300.2167213	1611789300.227722	1611789300.637722	1611789300.848722	1611789301.4807217	0.8429996967315674	0.6319997310638428	1	0
s03	2021-01-27 23:13:20	44	G	NON_BLINK	1611789301.4807217	1611789301.4927223	1611789301.919722	1611789302.130721	1611789302.8557212	0.9359991550445557	0.7250001430511475	1	0
s03	2021-01-27 23:13:20	45	G	BLINK	1611789302.8557212	1611789304.8767178	1611789305.385718	1611789305.5977159	1611789306.2177186	0.8320004940032959	0.6200027465820312	1	0
s03	2021-01-27 23:13:20	46	G	NON_BLINK	1611789306.218717	1611789306.2277162	1611789306.7907171	1611789307.0027149	1611789307.570715	0.7799978256225586	0.568000078201294	1	0
s03	2021-01-27 23:13:20	47	G	NON_BLINK	1611789307.571716	1611789307.5797157	1611789308.1927164	1611789308.403714	1611789308.935714	0.7429976463317871	0.5320000648498535	1	0
s03	2021-01-27 23:13:20	48	G	NON_BLINK	1611789308.9367154	1611789308.9487154	1611789309.4627142	1611789309.671714	1611789310.3557138	0.8929996490478516	0.68399977684021	1	0
s03	2021-01-27 23:13:20	49	G	NON_BLINK	1611789310.3557138	1611789310.367713	1611789310.8277116	1611789311.037714	1611789311.5647113	0.7369997501373291	0.5269973278045654	1	0
s03	2021-01-27 23:13:20	50	G	BLINK	1611789311.5647113	1611789313.5857117	1611789314.04671	1611789314.2617095	1611789314.91271	0.8659999370574951	0.6510004997253418	1	0
s03	2021-01-27 23:13:20	51	G	NON_BLINK	1611789314.91271	1611789314.9227095	1611789315.4347086	1611789315.644707	1611789316.4467072	1.0119986534118652	0.8020002841949463	1	0
s03	2021-01-27 23:13:20	52	G	NON_BLINK	1611789316.4467072	1611789316.4577084	1611789316.9187062	1611789317.1297064	1611789317.7267072	0.8080010414123535	0.5970008373260498	1	0
s03	2021-01-27 23:13:20	53	NG	NON_BLINK	1611789317.7267072	1611789317.7337058	1611789318.1427069	1611789318.3527062	1611789319.4037044	1.2609975337982178	1.0509982109069824	1	1
s03	2021-01-27 23:13:20	54	G	NON_BLINK	1611789319.4037044	1611789319.4117846	1611789319.9757125	1611789320.1857116	1611789320.8217094	0.8459968566894531	0.6359977722167969	1	0
s03	2021-01-27 23:13:20	55	G	BLINK	1611789320.8227105	1611789322.8387082	1611789323.3997083	1611789323.6117074	1611789324.4147067	1.014998435974121	0.8029992580413818	1	0
s03	2021-01-27 23:13:20	56	G	NON_BLINK	1611789324.4147067	1611789324.4237094	1611789324.933706	1611789325.1437063	1611789325.784706	0.8510000705718994	0.6409997940063477	1	0
s03	2021-01-27 23:13:20	57	G	NON_BLINK	1611789325.784706	1611789325.7927067	1611789326.3037057	1611789326.5127053	1611789326.9587042	0.6549985408782959	0.4459989070892334	1	0
s03	2021-01-27 23:13:20	58	G	NON_BLINK	1611789326.9587042	1611789326.9657042	1611789327.5757053	1611789327.7877038	1611789328.1227052	0.5469999313354492	0.33500146865844727	1	0
s03	2021-01-27 23:13:20	59	G	NON_BLINK	1611789328.1227052	1611789328.1307032	1611789328.7417035	1611789328.9517033	1611789329.8587015	1.1169979572296143	0.9069981575012207	1	0
s03	2021-01-27 23:13:20	60	G	BLINK	1611789329.8587015	1611789331.8757007	1611789332.4376993	1611789332.6467001	1611789333.0696983	0.6319990158081055	0.42299818992614746	1	0
s03	2021-01-27 23:13:20	61	NG	NON_BLINK	1611789333.0696983	1611789333.078701	1611789333.5886989	1611789333.799698	1611789334.8496978	1.2609989643096924	1.049999713897705	1	1
s03	2021-01-27 23:13:20	62	G	NON_BLINK	1611789334.850699	1611789334.8616993	1611789335.4726973	1611789335.6816986	1611789336.3916962	0.9189989566802979	0.7099976539611816	1	0
s03	2021-01-27 23:13:20	63	G	NON_BLINK	1611789336.3916962	1611789336.3996959	1611789336.8596964	1611789337.0696976	1611789337.8506947	0.9909982681274414	0.7809970378875732	1	0
s03	2021-01-27 23:13:20	64	G	NON_BLINK	1611789337.8516955	1611789337.859696	1611789338.269695	1611789338.4806957	1611789338.9446921	0.674997091293335	0.46399641036987305	1	0
s03	2021-01-27 23:13:20	65	G	BLINK	1611789338.9446921	1611789340.9626932	1611789341.4726925	1611789341.6816912	1611789342.2606912	0.7879986763000488	0.5789999961853027	1	0
s03	2021-01-27 23:13:20	66	G	NON_BLINK	1611789342.2616913	1611789342.2706912	1611789342.87969	1611789343.0886903	1611789343.4356897	0.555999755859375	0.3469994068145752	1	0
s03	2021-01-27 23:13:20	67	NG	NON_BLINK	1611789343.4356897	1611789343.4426901	1611789343.9566908	1611789344.16669	1611789345.216688	1.2599971294403076	1.0499978065490723	1	1
s03	2021-01-27 23:13:20	68	G	NON_BLINK	1611789345.216688	1611789345.2266893	1611789345.7366877	1611789345.945687	1611789346.4366877	0.7000000476837158	0.4910006523132324	1	0
s03	2021-01-27 23:13:20	69	G	NON_BLINK	1611789346.4366877	1611789346.4486876	1611789346.859687	1611789347.069687	1611789347.7856865	0.9259994029998779	0.7159996032714844	1	0
s03	2021-01-27 23:13:20	70	G	BLINK	1611789347.7856865	1611789349.8056843	1611789350.2156847	1611789350.4246848	1611789351.026683	0.8109984397888184	0.6019983291625977	1	0
s03	2021-01-27 23:13:20	71	G	NON_BLINK	1611789351.026683	1611789351.0356832	1611789351.5446851	1611789351.7546825	1611789352.085681	0.5409958362579346	0.33099842071533203	1	0
s03	2021-01-27 23:13:20	72	NG	NON_BLINK	1611789352.085681	1611789352.094681	1611789352.5026824	1611789352.712683	1611789353.7636807	1.260998249053955	1.0509977340698242	1	1
s03	2021-01-27 23:13:20	73	NG	NON_BLINK	1611789353.7636807	1611789353.771681	1611789354.2336829	1611789354.4436796	1611789355.4936786	1.259995698928833	1.0499989986419678	1	1
s03	2021-01-27 23:13:20	74	G	NON_BLINK	1611789355.4936786	1611789355.5016792	1611789355.9606798	1611789356.1706784	1611789356.7216785	0.7609987258911133	0.5510001182556152	1	0
s03	2021-01-27 23:13:20	75	G	BLINK	1611789356.7216785	1611789358.7396753	1611789359.3026767	1611789359.5126755	1611789359.982674	0.6799972057342529	0.4699983596801758	1	0
s03	2021-01-27 23:13:20	76	NG	NON_BLINK	1611789359.982674	1611789359.9916754	1611789360.4546738	1611789360.6666756	1611789361.7176733	1.2629995346069336	1.0509977340698242	1	1
s03	2021-01-27 23:13:20	77	G	NON_BLINK	1611789361.7176733	1611789361.7306736	1611789362.3006732	1611789362.5136726	1611789363.1486726	0.8479993343353271	0.6349999904632568	1	0
s03	2021-01-27 23:13:20	78	NG	NON_BLINK	1611789363.1496735	1611789363.1576734	1611789363.5676723	1611789363.7806733	1611789364.8316715	1.2639992237091064	1.0509982109069824	1	1
s03	2021-01-27 23:13:20	79	G	NON_BLINK	1611789364.8316715	1611789364.843671	1611789365.453669	1611789365.6626718	1611789366.295671	0.8420019149780273	0.6329991817474365	1	0
s03	2021-01-27 23:13:20	80	G	BLINK	1611789366.295671	1611789368.3126683	1611789368.8226671	1611789369.03267	1611789369.5916665	0.7689993381500244	0.5589964389801025	1	0
s03	2021-01-27 23:13:20	81	G	NON_BLINK	1611789369.5916665	1611789369.5996656	1611789370.0126681	1611789370.2236664	1611789370.890664	0.8779959678649902	0.6669976711273193	1	0
s03	2021-01-27 23:13:20	82	G	NON_BLINK	1611789370.890664	1611789370.8986661	1611789371.5076644	1611789371.718664	1611789372.5416648	1.0340003967285156	0.8230009078979492	1	0
s03	2021-01-27 23:13:20	83	G	NON_BLINK	1611789372.5416648	1611789372.549664	1611789372.958663	1611789373.1726635	1611789373.8056629	0.8469998836517334	0.6329994201660156	1	0
s03	2021-01-27 23:13:20	84	NG	NON_BLINK	1611789373.8056629	1611789373.814662	1611789374.276664	1611789374.4956627	1611789375.5466602	1.269996166229248	1.0509974956512451	1	1
s03	2021-01-27 23:13:20	85	G	BLINK	1611789375.5466602	1611789377.56966	1611789378.0806592	1611789378.2966595	1611789378.8026578	0.7219986915588379	0.5059983730316162	1	0
s03	2021-01-27 23:13:20	86	G	NON_BLINK	1611789378.8036585	1611789378.8146589	1611789379.2236578	1611789379.4326582	1611789380.3166578	1.0929999351501465	0.8839995861053467	1	0
s03	2021-01-27 23:13:20	87	G	NON_BLINK	1611789380.3166578	1611789380.3276563	1611789380.7906566	1611789381.0010412	1611789381.789656	0.9989993572235107	0.7886147499084473	1	0
s03	2021-01-27 23:13:20	88	G	NON_BLINK	1611789381.789656	1611789381.8006597	1611789382.2606556	1611789382.4706552	1611789383.1886544	0.9279987812042236	0.7179992198944092	1	0
s03	2021-01-27 23:13:20	89	NG	NON_BLINK	1611789383.1886544	1611789383.197655	1611789383.758654	1611789383.968655	1611789385.019653	1.2609989643096924	1.0509979724884033	1	1
s03	2021-01-27 23:13:20	90	NG	BLINK	1611789385.019653	1611789387.0386517	1611789387.5476499	1611789387.7576504	1611789388.80865	1.261000156402588	1.050999641418457	1	1
s03	2021-01-27 23:13:20	91	G	NON_BLINK	1611789388.80865	1611789388.81865	1611789389.2336493	1611789389.4446492	1611789389.8766494	0.6430001258850098	0.43200016021728516	1	0
s03	2021-01-27 23:13:20	92	G	NON_BLINK	1611789389.8766494	1611789389.8866487	1611789390.351649	1611789390.5666482	1611789391.2056465	0.8539974689483643	0.63899827003479	1	0
s03	2021-01-27 23:13:20	93	G	NON_BLINK	1611789391.2066462	1611789391.2146487	1611789391.6246474	1611789391.8356473	1611789392.3806453	0.755997896194458	0.5449979305267334	1	0
s03	2021-01-27 23:13:20	94	G	NON_BLINK	1611789392.3806453	1611789392.3916485	1611789393.0016448	1611789393.2106452	1611789393.7696443	0.7679994106292725	0.5589990615844727	1	0
s03	2021-01-27 23:13:20	95	G	BLINK	1611789393.7696443	1611789395.7916427	1611789396.2516418	1611789396.460643	1611789396.8556426	0.6040008068084717	0.39499950408935547	1	0
s03	2021-01-27 23:13:20	96	G	NON_BLINK	1611789396.8556426	1611789396.8646424	1611789397.4266431	1611789397.6366405	1611789398.4306405	1.0039973258972168	0.7939999103546143	1	0
s03	2021-01-27 23:13:20	97	G	NON_BLINK	1611789398.4316418	1611789398.4396417	1611789398.951641	1611789399.1626408	1611789399.8156385	0.8639974594116211	0.6529977321624756	1	0
s03	2021-01-27 23:13:20	98	G	NON_BLINK	1611789399.8156385	1611789399.8236408	1611789400.38464	1611789400.5966396	1611789401.2556372	0.8709971904754639	0.6589975357055664	1	0
s03	2021-01-27 23:13:20	99	G	NON_BLINK	1611789401.2556372	1611789401.264638	1611789401.8306375	1611789402.0436387	1611789403.0466356	1.2159981727600098	1.0029969215393066	1	0
s03	2021-01-27 23:13:20	100	NG	BLINK	1611789403.0466356	1611789405.0666347	1611789405.5766335	1611789405.787634	1611789406.8376322	1.2609987258911133	1.0499982833862305	1	1
s03	2021-01-27 23:13:20	101	G	NON_BLINK	1611789406.8376322	1611789406.8496332	1611789407.260632	1611789407.486632	1611789408.1246314	0.8639993667602539	0.6379992961883545	1	0
s03	2021-01-27 23:13:20	102	G	NON_BLINK	1611789408.1246314	1611789408.1326313	1611789408.7416306	1611789408.95163	1611789409.6556315	0.9140009880065918	0.7040014266967773	1	0
s03	2021-01-27 23:13:20	103	G	NON_BLINK	1611789409.6556315	1611789409.664631	1611789410.0736308	1611789410.2836304	1611789411.0146313	0.9410004615783691	0.7310009002685547	1	0
s03	2021-01-27 23:13:20	104	G	NON_BLINK	1611789411.0146313	1611789411.02363	1611789411.43263	1611789411.6436312	1611789412.3336275	0.9009974002838135	0.6899962425231934	1	0
s03	2021-01-27 23:13:20	105	G	BLINK	1611789412.3336275	1611789414.3516252	1611789414.8146257	1611789415.0236256	1611789415.5096254	0.6949996948242188	0.48599982261657715	1	0
s03	2021-01-27 23:13:20	106	G	NON_BLINK	1611789415.5096254	1611789415.5176256	1611789415.9276245	1611789416.139624	1611789416.594623	0.6669986248016357	0.4549989700317383	1	0
s03	2021-01-27 23:13:20	107	G	NON_BLINK	1611789416.594623	1611789416.604624	1611789417.068625	1611789417.2786226	1611789417.5516217	0.48299670219421387	0.2729990482330322	1	0
s03	2021-01-27 23:13:20	108	G	NON_BLINK	1611789417.5516217	1611789417.559624	1611789418.0206227	1611789418.2406223	1611789418.6466243	0.6260015964508057	0.4060020446777344	1	0
s03	2021-01-27 23:13:20	109	G	NON_BLINK	1611789418.6466243	1611789418.657622	1611789419.1716218	1611789419.3806229	1611789419.7136204	0.5419986248016357	0.33299756050109863	1	0
s03	2021-01-27 23:13:20	110	G	BLINK	1611789419.7136204	1611789421.7346191	1611789422.2966201	1611789422.5126188	1611789423.0906188	0.7939987182617188	0.5780000686645508	1	0
s03	2021-01-27 23:13:20	111	G	NON_BLINK	1611789423.0906188	1611789423.0996196	1611789423.6606176	1611789423.8716176	1611789424.3546164	0.6939988136291504	0.4829988479614258	1	0
s03	2021-01-27 23:13:20	112	G	NON_BLINK	1611789424.3546164	1611789424.3806176	1611789424.895616	1611789425.1076164	1611789425.6906168	0.7950007915496826	0.5830004215240479	1	0
s03	2021-01-27 23:13:20	113	G	NON_BLINK	1611789425.6906168	1611789425.6996188	1611789426.2116165	1611789426.4236155	1611789427.2496138	1.0379972457885742	0.8259983062744141	1	0
s03	2021-01-27 23:13:20	114	G	NON_BLINK	1611789427.2496138	1611789427.258614	1611789427.772614	1611789427.9836166	1611789428.5446138	0.7719998359680176	0.5609972476959229	1	0
s03	2021-01-27 23:13:20	115	G	BLINK	1611789428.5446138	1611789430.5726116	1611789431.1346111	1611789431.3456113	1611789431.79061	0.655998945236206	0.44499874114990234	1	0
s03	2021-01-27 23:13:20	116	G	NON_BLINK	1611789431.79061	1611789431.7986112	1611789432.3636098	1611789432.5756102	1611789432.9946096	0.6309998035430908	0.41899943351745605	1	0
s03	2021-01-27 23:13:20	117	NG	NON_BLINK	1611789432.9946096	1611789433.004021	1611789433.6136081	1611789433.8246083	1611789434.8746078	1.2609996795654297	1.049999475479126	1	1
s03	2021-01-27 23:13:20	118	G	NON_BLINK	1611789434.8746078	1611789434.8856087	1611789435.3966072	1611789435.6066089	1611789436.1056082	0.7090010643005371	0.49899935722351074	1	0
s03	2021-01-27 23:13:20	119	G	NON_BLINK	1611789436.1056082	1611789436.1166077	1611789436.5776076	1611789436.7886052	1611789437.0986066	0.5209989547729492	0.3100013732910156	1	0
s03	2021-01-27 23:13:20	120	G	BLINK	1611789437.0986066	1611789439.1176045	1611789439.728603	1611789439.9376042	1611789440.444603	0.7160000801086426	0.5069987773895264	1	0
s03	2021-01-27 23:13:20	121	G	NON_BLINK	1611789440.444603	1611789440.453604	1611789440.8646026	1611789441.0756025	1611789441.7246022	0.8599996566772461	0.6489996910095215	1	0
s03	2021-01-27 23:13:20	122	G	NON_BLINK	1611789441.7246022	1611789441.7346017	1611789442.2466006	1611789442.4566004	1611789442.867601	0.6210002899169922	0.41100049018859863	1	0
s03	2021-01-27 23:13:20	123	G	NON_BLINK	1611789442.867601	1611789442.8786001	1611789443.4416027	1611789443.6526005	1611789444.0215995	0.5799968242645264	0.36899900436401367	1	0
s03	2021-01-27 23:13:20	124	NG	NON_BLINK	1611789444.0215995	1611789444.031599	1611789444.4426005	1611789444.6536002	1611789445.7035987	1.260998249053955	1.0499985218048096	1	1
s03	2021-01-27 23:13:20	125	NG	BLINK	1611789445.7045994	1611789447.7275984	1611789448.3365953	1611789448.5475974	1611789449.5975935	1.260998249053955	1.0499961376190186	1	1
s03	2021-01-27 23:13:20	126	G	NON_BLINK	1611789449.5975935	1611789449.6065946	1611789450.0235949	1611789450.2355938	1611789450.8595927	0.8359978199005127	0.6239988803863525	1	0
s03	2021-01-27 23:13:20	127	G	NON_BLINK	1611789450.8595927	1611789450.869595	1611789451.4315925	1611789451.6435921	1611789452.3155923	0.8839998245239258	0.6720001697540283	1	0
s03	2021-01-27 23:13:20	128	G	NON_BLINK	1611789452.3155923	1611789452.3255954	1611789452.890592	1611789453.101591	1611789453.9755893	1.0849971771240234	0.8739981651306152	1	0
s03	2021-01-27 23:13:20	129	G	NON_BLINK	1611789453.9755893	1611789453.98459	1611789454.5945907	1611789454.804589	1611789455.5915885	0.9969978332519531	0.7869994640350342	1	0
s03	2021-01-27 23:13:20	130	G	BLINK	1611789455.5915885	1611789457.6115863	1611789458.2205882	1611789458.430587	1611789458.852586	0.63199782371521	0.4219989776611328	1	0
s03	2021-01-27 23:13:20	131	NG	NON_BLINK	1611789458.852586	1611789458.860586	1611789459.269586	1611789459.482586	1611789460.5325844	1.262998342514038	1.0499985218048096	1	1
s03	2021-01-27 23:13:20	132	G	NON_BLINK	1611789460.5325844	1611789460.5415854	1611789461.0545843	1611789461.2645836	1611789461.8335834	0.7789990901947021	0.5689997673034668	1	0
s03	2021-01-27 23:13:20	133	G	NON_BLINK	1611789461.8345838	1611789461.8445833	1611789462.3035839	1611789462.5135844	1611789463.322582	1.018998146057129	0.808997631072998	1	0
s03	2021-01-27 23:13:20	134	G	NON_BLINK	1611789463.322582	1611789463.3305843	1611789463.7925825	1611789464.0085812	1611789464.7685802	0.9759976863861084	0.7599990367889404	1	0
s03	2021-01-27 23:13:20	135	G	BLINK	1611789464.7685802	1611789466.7865813	1611789467.2475789	1611789467.4585779	1611789467.983578	0.7359991073608398	0.5250000953674316	1	0
s03	2021-01-27 23:13:20	136	G	NON_BLINK	1611789467.983578	1611789467.9925783	1611789468.4045799	1611789468.613579	1611789469.4535756	1.0489957332611084	0.8399965763092041	1	0
s03	2021-01-27 23:13:20	137	G	NON_BLINK	1611789469.4535756	1611789469.462577	1611789469.9735754	1611789470.1835756	1611789470.7185779	0.7450025081634521	0.5350022315979004	1	0
s03	2021-01-27 23:13:20	138	G	NON_BLINK	1611789470.7195754	1611789470.727576	1611789471.3395748	1611789471.5525773	1611789472.5445745	1.2049996852874756	0.991997241973877	1	0
s03	2021-01-27 23:13:20	139	NG	NON_BLINK	1611789472.5445745	1611789472.5525753	1611789473.0625746	1611789473.2725725	1611789474.3225727	1.259998083114624	1.0500001907348633	1	1
s03	2021-01-27 23:13:20	140	G	BLINK	1611789474.3225727	1611789476.343571	1611789476.8545718	1611789477.0645702	1611789477.5765686	0.7219967842102051	0.5119984149932861	1	0
s03	2021-01-27 23:13:20	141	G	NON_BLINK	1611789477.5765686	1611789477.58457	1611789478.1455684	1611789478.3545692	1611789479.257568	1.11199951171875	0.902998685836792	1	0
s03	2021-01-27 23:13:20	142	G	NON_BLINK	1611789479.257568	1611789479.2665684	1611789479.7285674	1611789479.9385676	1611789480.777565	1.0489976406097412	0.8389973640441895	1	0
s03	2021-01-27 23:13:20	143	G	NON_BLINK	1611789480.777565	1611789480.788565	1611789481.3975666	1611789481.6065664	1611789482.6565654	1.2589988708496094	1.0499989986419678	0	1
s03	2021-01-27 23:13:20	144	G	NON_BLINK	1611789483.071564	1611789483.081564	1611789483.540565	1611789483.756774	1611789484.4855618	0.9449968338012695	0.728787899017334	1	0
s03	2021-01-27 23:13:20	145	G	BLINK	1611789484.4855618	1611789486.5095606	1611789486.9195602	1611789487.129561	1611789487.7865598	0.866999626159668	0.656998872756958	1	0
s03	2021-01-27 23:13:20	146	G	NON_BLINK	1611789487.7875607	1611789487.8005598	1611789488.3635626	1611789488.5785604	1611789489.1865585	0.8229959011077881	0.6079981327056885	1	0
s03	2021-01-27 23:13:20	147	G	NON_BLINK	1611789489.1865585	1611789489.1965582	1611789489.809559	1611789490.0205567	1611789490.9135578	1.1039986610412598	0.8930010795593262	1	0
s03	2021-01-27 23:13:20	148	NG	NON_BLINK	1611789490.914559	1611789490.923558	1611789491.3845575	1611789491.596557	1611789492.6465554	1.261997938156128	1.0499985218048096	1	1
s03	2021-01-27 23:13:20	149	G	NON_BLINK	1611789492.6465554	1611789492.6565547	1611789493.1665556	1611789493.3755543	1611789494.0185542	0.8519985675811768	0.6429998874664307	1	0
s03	2021-01-27 23:13:20	150	NG	BLINK	1611789494.0185542	1611789496.0485532	1611789496.5595515	1611789496.7695515	1611789497.8195508	1.2599992752075195	1.0499992370605469	1	1
s03	2021-01-27 23:13:20	151	G	NON_BLINK	1611789497.8205514	1611789497.8295538	1611789498.2915516	1611789498.5015502	1611789499.1905496	0.8989980220794678	0.6889994144439697	1	0
s03	2021-01-27 23:13:20	152	G	NON_BLINK	1611789499.1915498	1611789499.19955	1611789499.81055	1611789500.0205498	1611789500.6965485	0.8859984874725342	0.6759986877441406	1	0
s03	2021-01-27 23:13:20	153	NG	NON_BLINK	1611789500.6965485	1611789500.705549	1611789501.2165482	1611789501.4275503	1611789502.4785464	1.261998176574707	1.0509960651397705	1	1
s03	2021-01-27 23:13:20	154	G	NON_BLINK	1611789502.4785464	1611789502.4875464	1611789502.8965468	1611789503.1065466	1611789503.7165456	0.8199987411499023	0.6099989414215088	1	0
s03	2021-01-27 23:13:20	155	NG	BLINK	1611789503.7165456	1611789505.7355442	1611789506.1455445	1611789506.3555455	1611789507.4055424	1.259997844696045	1.0499968528747559	1	1
s03	2021-01-27 23:13:20	156	G	NON_BLINK	1611789507.4055424	1611789507.4155428	1611789507.8275433	1611789508.0375428	1611789508.683543	0.8559997081756592	0.6460001468658447	1	0
s03	2021-01-27 23:13:20	157	G	NON_BLINK	1611789508.683543	1611789508.6915407	1611789509.2045417	1611789509.417541	1611789510.0785408	0.8739991188049316	0.6609997749328613	1	0
s03	2021-01-27 23:13:20	158	G	NON_BLINK	1611789510.0785408	1611789510.0865405	1611789510.5465403	1611789510.7565382	1611789511.5185387	0.9719984531402588	0.762000560760498	1	0
s03	2021-01-27 23:13:20	159	G	NON_BLINK	1611789511.5185387	1611789511.5265386	1611789511.9875393	1611789512.199538	1611789512.8625371	0.8749978542327881	0.662999153137207	1	0
s03	2021-01-27 23:13:20	160	G	BLINK	1611789512.8625371	1611789514.8845365	1611789515.2965348	1611789515.5115368	1611789516.0485346	0.7519998550415039	0.5369977951049805	1	0
s03	2021-01-27 23:13:20	161	G	NON_BLINK	1611789516.0485346	1611789516.0585341	1611789516.5205352	1611789516.7305353	1611789517.4135325	0.8929972648620605	0.6829972267150879	1	0
s03	2021-01-27 23:13:20	162	G	NON_BLINK	1611789517.4135325	1611789517.4235346	1611789517.8335323	1611789518.0465338	1611789518.637532	0.803999662399292	0.5909981727600098	1	0
s03	2021-01-27 23:13:20	163	NG	NON_BLINK	1611789518.637532	1611789518.6455333	1611789519.1555324	1611789519.364533	1611789520.4155297	1.2599973678588867	1.0509967803955078	1	1
s03	2021-01-27 23:13:20	164	NG	NON_BLINK	1611789520.4155297	1611789520.4255311	1611789520.8845325	1611789521.0945308	1611789522.1445293	1.2599968910217285	1.0499985218048096	1	1
s03	2021-01-27 23:13:20	165	NG	BLINK	1611789522.1445293	1611789524.1655273	1611789524.7265263	1611789524.9355273	1611789525.986528	1.2600016593933105	1.0510005950927734	1	1
s03	2021-01-27 23:13:20	166	G	NON_BLINK	1611789525.986528	1611789525.998527	1611789526.609526	1611789526.8195245	1611789527.4975255	0.8879995346069336	0.6780009269714355	1	0
s03	2021-01-27 23:13:20	167	G	NON_BLINK	1611789527.4985259	1611789527.5105238	1611789527.9225254	1611789528.1325252	1611789528.8275228	0.9049973487854004	0.6949975490570068	1	0
